timestamp,ax,ay,az,gx,gy,gz
0.000,-0.07984099733855402,0.08429587277382823,9.869631554246649,0.015831302188645285,0.003635314117345279,0.004361390713555465
0.010,-0.07934341841476344,-0.006927198993418706,9.823825863681378,-0.004533497772310455,0.004603404377705694,0.0040228248850736155
0.020,-0.0941999847747198,-0.1616964184748422,9.79102463372929,-0.0018573722789597949,0.0028256316916847137,0.006174279655668021
0.030,-0.09293376710780338,-0.13126229064944803,9.825318377622883,-0.006131016322510544,0.004684485842560936,0.0008518682418055948
0.040,0.053622551458490424,-0.1431581004921147,9.70184323147063,0.013828056930708906,-0.011511036090612287,0.0035857424998241984
0.050,-0.031704993634407146,0.039606335411802,9.818528878773542,-0.008032433785256608,-0.01109212923551999,-0.00924696498280071
0.060,0.007285155627793369,-0.08222285338557489,9.732098627031663,0.011252769528553764,0.004956329866575874,0.014931795531965632
0.070,0.07698397183763726,0.0855323149316403,9.93361600156702,0.011675512809190648,0.004188125584094183,0.015741383309584543
0.080,-0.03003833265505004,0.04994450839347958,9.814502742550726,0.0034643376633967478,-0.0007154599348938053,0.011639015697252786
0.090,0.08568238584028931,-0.07336661325691553,9.877731021866692,0.0032216602958691277,-0.009751797131189352,-0.003921405900780125
0.100,0.05724890398098014,-0.001422572432950084,9.880290046677223,0.003520247317250204,-0.002222807935603145,0.0010738659927442091
0.110,0.10637919377749937,0.07431473456059712,9.835040935722407,-0.0036693999180537275,0.004941416513866276,0.0036755850356075164
0.120,-0.06895189508468899,0.1340727353368319,9.746308444896568,0.005463335667874088,0.007089332034557233,-0.017055541645400026
0.130,-0.13259459572881882,0.041388403334572395,9.813723670204027,0.0003524862788214364,0.012562905780396885,0.018908262417488556
0.140,-0.0021696901589240924,0.07331115928899105,9.801885266829728,-0.006706875147418475,-3.109819829243736e-05,0.0026532936543045512
0.150,-0.1486920021076596,-0.08606745523078452,9.85069326005919,0.012100669651438205,0.0009450449857043749,0.0013295562477241738
0.160,-0.024170733601119022,0.1509782023606587,9.78894085330132,-0.002243118686753933,0.00013064704323691411,0.018723071545884654
0.170,0.14012611976829117,-0.07977055855326046,9.865807653805364,-0.01855565528819808,-0.0015411131092329107,0.013685041428589242
0.180,-0.0066617006991351,0.03568348833491862,9.736598763355536,0.002359075099287194,0.004403609080630784,0.0015130794950853315
0.190,0.015396100907244695,0.05661189643911038,9.916440374309525,0.007428909666550718,-0.0017558646302393201,0.0027415556608643967
0.200,0.016565329287037203,-0.015823188278166533,9.838723610041864,-0.0015711729978803621,-0.0058679068235481515,-0.007146077116183451
0.210,0.08307007340318917,0.04402838699349088,9.881611820049992,-0.008040271567519906,-0.012011785635556218,-0.009485604363442274
0.220,-0.13377800469772683,0.14269326225878548,9.863766536131466,0.005557570426990636,-0.013602572461721293,0.013932672716277367
0.230,0.014859811968568948,0.030950446137901957,9.959025338369633,-0.0026308180551566853,-0.009585562352623327,-0.0068585520026173356
0.240,-0.151657954443873,-0.023046919131606693,9.78535657946383,-0.006402238026931845,-0.0065646572652239485,0.011076959373432916
0.250,0.08001320481148998,-0.09445441669029295,9.86131463203284,-0.006710081725692973,-0.002816216194310554,-0.0067066918164955455
0.260,0.08231606181170271,0.2249416982385992,9.946960523920733,-0.009500268931056394,-0.004651719132070261,-0.016639391913261664
0.270,-0.025007854202572552,0.09345277913185147,9.931722196822564,-0.010964953066061395,0.0010572328112624142,0.002327723483553508
0.280,-0.06654074230455352,0.06240154018081323,9.908642014037337,0.0029672633693230426,-0.010469000952476772,0.0037080614795959306
0.290,0.004941531979627887,0.18843161000062147,9.572645767881848,0.006334167275829229,-0.0032285769758263706,0.0048831504605897505
0.300,-0.047614257311607816,0.11282575145840393,9.90975729697167,0.01270946405899187,-0.0037364691520282455,-0.001015852065726344
0.310,-0.003999282002709495,0.19558396836472905,9.856380546899834,0.006781339682078366,-0.00551135718167718,0.010237738743738041
0.320,-0.10200902720004024,-0.07513475065681452,9.756859420675733,0.015025383148597195,-0.0034175157684652687,0.010163788111841402
0.330,-0.054670512846449505,0.01617902060137041,9.787105150272785,-0.010581938740113591,0.004882967697129776,-0.005633344676437711
0.340,-0.0016706844957039277,-0.04167508479457864,9.934770487337795,-0.004314670345639039,0.012665574538680125,0.004600279558573003
0.350,-0.04141791235656414,0.020223906087040583,9.711702514921647,0.016107516328106742,0.010042273271948475,0.014422825006775568
0.360,0.015304295773085086,0.01478942933710318,9.725568923175722,0.003901733214314932,0.007004537964706693,0.002660303813889809
0.370,0.07321230810733181,-0.08897528945235855,9.615820232308824,0.008390277137750668,0.0009133803687815323,-0.0001992116566548789
0.380,0.04854774254679044,0.2561212664290762,9.89397109990492,0.014507307064165902,0.012027826958694872,0.006080196671352383
0.390,-0.08264916285215924,0.2131705939280194,9.868263049199516,-0.009633244801945036,-0.011362127782751995,0.01142306113126828
0.400,-0.10087661988059021,0.00956718870224538,9.744119132662224,0.015725761226904725,-0.0023984821920992145,0.003071877311979221
0.410,-0.2793945281055516,-0.26136830637739633,9.970779309616617,-0.0015750547080767578,-0.0014592174969761472,0.004155167725827613
0.420,0.0484966234771238,-0.09628996951109264,9.823396436566906,-0.016376123635384734,0.018540045063448713,0.01284195469221326
0.430,0.10320418231536517,0.18690799781162726,9.763647349975594,0.003474670334856208,-0.006846602782926298,-0.013394671893171515
0.440,0.12886294485320535,0.056550772533975,9.907545824517952,-0.006357129155669207,-0.004997907687824556,-0.014931848232074375
0.450,-0.043676294674798256,-0.04811578780440682,9.741282507887206,0.021171728477898038,-0.010925366512346999,0.0002719009338819313
0.460,0.016402858717847513,-0.050705900249306414,9.887024635601605,-0.012295470516306375,0.011468286695154975,0.010058909758761352
0.470,0.08937964802814954,0.10272012025319557,9.774735225519953,0.008116268748243515,0.0028664168462932634,0.0022219541785733353
0.480,0.105363755486084,-0.16653618645620505,9.863590548905872,-0.0025733942378955246,0.001396500870704189,-0.004042309753988975
0.490,0.06597101304772957,-0.13018206171926913,9.677181062443566,0.009852349452922956,-0.008586309208178081,0.025302564430182656
0.500,0.03340191853362376,0.07311591407263625,9.873373440288097,-0.009059181175268419,0.005498366950031945,0.0022799066608835033
0.510,0.04864178564586618,-0.041965928678900116,9.820385388357463,0.02440535871457063,0.0019469078573840992,0.0009369854169414896
0.520,-0.07211646441079587,0.10527216214751914,9.862066135911085,0.002987503347511698,0.015155298363901266,0.022888928875926088
0.530,-0.03695097974189531,-0.14516954418960207,9.713230779984777,-0.015772253467114587,0.004311290831953595,-0.004041104148929391
0.540,0.04673306095684633,-0.10233676055124517,9.673987185459536,-0.006536443699518203,-0.005404948551277377,0.0030376767418928865
0.550,0.0028020936926567725,0.014188061663438027,9.794383824928188,0.013203282687150202,0.007135333783123358,-0.0050102591806910944
0.560,-0.11838521485260001,-0.1818120888069898,10.00909684629762,0.002140287011944769,-0.012732279462085326,-0.01039716448243539
0.570,-0.1562905401363696,-0.10167621977103702,9.937644018669662,-0.0047989189907810285,0.011616975701939312,-0.01300181671723573
0.580,-0.0979837117296995,0.08975000474057868,9.74783238551199,0.010737060889222702,-0.0030158511964213704,0.0103475092550148
0.590,-0.06993655083737024,-0.1617129957704541,9.751617885354369,-0.012793757260923886,0.0025790192761549007,0.0022766328356482847
0.600,-0.08414223596599718,0.023334677512723737,9.87752922038982,-0.009385404733087296,0.007183185033678642,0.014114149701062355
0.610,0.011415888677516084,-0.17810752613658584,9.830446173064097,-0.001585421891389916,-0.015257455356040357,-0.007778452363916522
0.620,-0.07205719300815118,0.14885111766100753,9.907693200104935,-0.01345408709015072,-0.0020633091400428425,-0.0013298987194815058
0.630,-0.09651930776525489,-0.1213593584327491,9.94069451284165,0.0037698472191456086,0.003412954932751697,0.004613923329917417
0.640,-0.08583190541571663,0.08272124202919845,9.763977569068961,-0.013011948891459919,0.002408069574818308,-0.0029436001181443613
0.650,0.029218465160664647,0.14248868484556115,9.9013594075067,-0.0017035262478962477,0.012583286780015855,-0.0061205711387517445
0.660,-0.20279229524820358,-0.03771679141794746,9.928768142277608,0.0013163791887432037,0.007488446559403335,0.0009392728690531452
0.670,0.34362528756224586,0.07348514923224526,9.78117338756414,-0.021467691496056828,-0.0036110740568697005,0.012962208845208269
0.680,-0.08231985091254457,0.026749439534314818,9.786501829497922,0.00956619737687086,-0.0035195356659247466,-0.006362140512114332
0.690,0.14548757438097765,0.10959705980552592,9.730046771811091,-0.014269229924419214,0.004737690335651286,-0.015070519401305682
0.700,-0.008911867897655355,0.021563193445935734,9.82862626400606,0.009897138888271952,-0.021066640331998194,0.0017857650027599198
0.710,-0.05367505860144929,0.025109503778745625,9.700035991522974,0.03041918772150937,-0.005033508987532689,0.005105816027608146
0.720,-0.0737880712402446,-0.15127467765964928,9.624496915445967,0.0018285679257465364,0.006692375925642698,-0.004467043373487193
0.730,-0.05296840732650257,0.14490624861246412,9.875022147494905,-0.011468043056612916,0.024012973271188297,-0.016684906423843168
0.740,-0.12631680550508992,-0.04148231403506972,9.780484874561598,0.009945608001568221,-0.009535173883790266,-0.005792367821880544
0.750,-0.06813466971668901,-0.013585152117110453,9.674791843579184,-0.01578271920595164,-0.011097654379512578,-0.0027182340623270176
0.760,-0.06091492897437361,0.07705205493382905,9.897225185547875,-0.013198974691182315,0.0171903193176839,-0.0148630729720671
0.770,-0.07253009168051987,-0.04468512197344954,9.908759926758183,-0.013108019218147183,-0.005448516070494604,0.0186393905634318
0.780,-0.14535840274913145,-0.045525803803256125,9.85291356098885,-0.00970872998248646,0.005766780622630994,0.003027987163275684
0.790,-0.02675683135343211,0.047465694102841204,9.81825201156081,0.0021226189247896964,-0.012409390730068396,-0.00783574562076836
0.800,0.15615303733276886,0.1626385420299239,9.781317209247128,0.010651991941714511,-0.004190206022867236,-0.01049914680710715
0.810,-0.03531236343590285,-0.0696798364819278,9.824545319444981,0.008888914580742176,0.00019466432108089957,0.0027554794744260066
0.820,-0.07967755694845374,-0.015182404638591374,9.777053103196758,0.007283101627748724,-0.010360495836256063,0.003834918094746118
0.830,-0.0728951159796372,-0.03429548940187305,9.785896318542354,0.007422385653817602,-0.0017702889692080977,-0.0029630493622995946
0.840,0.07400396042087441,-0.08071180199161751,9.646641264116683,-0.007766156785219167,0.012616614048276869,-0.013966695165656018
0.850,0.09365796004334051,0.2610103863684142,9.8245746756494,-0.019478890839620237,-0.005519462576039792,-0.010451135245044674
0.860,-0.1763302520932103,0.042591548891929724,9.874625275006473,-0.004729232288192731,-0.006238779746451884,0.011026158115818781
0.870,0.019050586224109947,-0.08404441028705163,9.82435274146023,-0.013388667680277863,-0.0011981349470348577,-0.007373937995849234
0.880,-0.016111008982818593,0.0777041298391767,9.767745906420936,0.0006714050033449617,-0.004005930586959326,-0.0026638983017060187
0.890,-0.01384077731464298,0.11517041886119637,9.652823120562115,0.013689017473209006,0.005647848522475398,-0.03076510683403616
0.900,0.0364429997891442,-0.023639307750577952,9.870362707496046,-0.02013686906862888,-0.014069036014847682,0.00622197613288315
0.910,0.07694520844953709,-0.05756542803360884,9.832104232905058,0.009262537861477342,0.009333636891052639,0.018170407631732145
0.920,0.006534274876404985,-0.027031370822975145,9.597567509565842,0.007263171761938904,0.013896125077098778,0.00035251824747001796
0.930,-0.05578225054289965,0.07837867612896171,9.65367284654954,0.003079189497513255,0.006296559818642793,-0.0030985945511144094
0.940,-0.059504973343621516,0.03632232727645033,9.854547978952981,0.005985209114615557,-0.005658057186778324,-0.0012558069159762074
0.950,-0.023451690059703063,-0.006290831393463005,9.847458009330571,-0.00040311322151124736,-0.0007371639393303567,-0.0053406715730420365
0.960,-0.03318937497033269,-0.02230295932434798,9.775349625814222,-0.009045607428586603,-0.0068822943279165695,-0.012761653245883724
0.970,-0.023270259972689146,-0.06917834307689733,9.824715484160915,-0.005026937200444726,0.014344857060214742,0.011336476320406384
0.980,-0.019061860927304154,-0.06752909427999727,9.761987263743524,-0.008128186064862325,0.0028877164956618994,0.003721754383828185
0.990,-0.12844243988409806,0.16675313330195574,9.785962157088232,-0.005069291331469256,0.008307994424726423,0.015975392534203322
1.000,0.05601103895433889,0.0334334286320387,9.910236207460906,-0.014733360853909897,0.004020213121476648,0.008520482746708923
1.010,0.012629721487374748,0.03254913529208885,9.752132327134312,0.00880433306230368,-0.021229078791170638,0.014679790485464795
1.020,-0.23448307669802576,0.09444279027602376,9.847144229905686,-0.010591921137520704,0.004523696281288874,0.00045381351718244776
1.030,-0.029676435030407122,0.0795302524452709,9.732582694653305,-0.0026664949304844522,0.0025514160899217774,2.033510913663848e-06
1.040,0.024165259579024656,-0.21063634599817896,9.618148683225067,0.015000959966975176,-0.005596258576414624,-0.005236596491597157
1.050,-0.022453898062044193,-0.0931920877519613,9.873096826885405,0.0055364797063705675,0.005095002575604835,-0.0008582629644905307
1.060,0.060300013034932924,0.07014635299282168,9.868697153235825,-0.007992977672776817,0.004718412141830343,-0.0052899114902967
1.070,0.11103758192864158,-0.00844284513984797,9.773446994599803,-0.006946154397362927,-0.01210860797958961,0.005713889976772211
1.080,0.020363753517467414,0.01733839756763199,9.731373497430749,-0.01815171303197525,-0.009507196286885162,0.0018554623875216636
1.090,-0.024643374800951454,-0.031283999804435296,9.699802380873624,0.025209995313975754,0.027868922348158583,0.008452257365776096
1.100,-0.02701530660094081,0.05488027827342915,9.834690737644545,0.0034775632597182126,-0.007259666589298234,0.012154202375810453
1.110,-0.08403147367596345,0.047970844157512946,9.926145068627282,0.010305872809132807,-3.2754708172657294e-05,0.01275027538190219
1.120,-0.01997301030389694,0.03142395805258407,9.7226419120065,0.006967712238974561,-0.004734573716691242,0.01847565584299825
1.130,-0.16485511281833476,-0.07006692926837309,9.821439674157425,-0.003245101113373295,0.004159612847038488,-0.00021371423673650848
1.140,0.08595899230160943,0.01949382252475136,9.636637503928336,0.006745696885174743,0.01299649921880818,-0.01394895756332472
1.150,0.008776140655840738,0.10248419903448147,9.669446777382847,0.017167274937209372,0.012301236221113065,0.008113301515666426
1.160,0.037760223655369574,-0.027135145447498024,9.760043633998851,-0.00404703258094142,0.0016053538259056355,-0.009098849451219108
1.170,0.046196990553583485,0.035449405084844475,9.826047570317026,-0.012328855139348066,-0.013771444617500088,-0.000780327856520161
1.180,-0.14048420512737841,-0.008615717737532553,9.787301079228508,0.0008710807073540232,-0.011181413323722552,0.001981352231033665
1.190,0.01963575506811738,0.033671911013039194,9.824049391321578,0.008612541542799316,-0.005748580488939924,-0.028929327910081147
1.200,0.030700590425787107,-0.14542817770296865,9.831848139397431,-0.009864651630285373,0.008790634174394013,-0.006072995159265634
1.210,-0.029188869823566235,0.10313991984221144,9.699633357311429,-0.008463375822276036,0.0009728185997206195,0.0035063203013686517
1.220,0.05211875584027703,-0.03919910333978206,9.884594492703494,0.0022638161924934583,-0.007741895484222495,-0.005753203021300795
1.230,0.15744296527776286,0.0035498051556439713,9.91059533934149,-0.0058679374322744265,-0.008974655735732678,-0.019746635619861907
1.240,0.10773178523304633,-0.1206837432796349,9.806190852505317,0.00644258047624701,-0.005444782827379242,0.011305571059166733
1.250,0.004776356566323835,-0.12876024712522427,9.696647445942823,0.004606844075340143,0.009277606232972066,-0.0030930561316731783
1.260,0.04477650353270369,-0.13351929631875178,9.954668554219078,0.018369614806906295,-0.016936119801614257,0.015919889203326317
1.270,-0.15885879039125733,-0.09640092990629985,9.861222538189535,-0.004202427625239153,-0.0116119153431555,-0.00956440723414881
1.280,0.07891247605668388,-0.05889613551593144,9.984310937753913,0.00137286904036413,-0.004927735581858096,-0.005241756477271904
1.290,0.005585231841593231,0.05365016130881206,9.841273413818346,0.0007874862483312647,-0.006291976003813703,-0.01486845624519863
1.300,-0.017281125627737932,-0.07606957585470007,9.662672155424168,0.002930894607702752,-0.008092623979004503,0.007765761044933974
1.310,-0.031363078172362384,-0.1274576124159242,9.77876147630233,0.002936258648441016,0.002862008363878988,0.01982810022518558
1.320,0.20987261926993092,-0.020623786357967154,9.687578769680286,-0.008898518813953036,0.009895677147058366,-0.001387377104423433
1.330,0.014290416240091764,0.0484498568266409,9.761973846926965,0.0023597508789332546,-0.01130013497696829,0.006696027960050539
1.340,-0.05318696569284466,0.001989684063024024,9.959950853664944,-0.025978500396691393,0.0024470854659356125,-6.732839154546088e-05
1.350,-0.04694714316747432,-0.08671292571770378,10.069626424990865,0.012039477960294333,0.010939559058623151,-0.003441907641480811
1.360,-0.20414873111773854,0.15061682110754004,9.776648585063834,-0.012945299587466302,0.010485290449386661,0.007078438673627533
1.370,0.05818974105858752,0.1429302689103917,9.88023074559311,0.02189735003856846,0.001087735729410859,-0.00417006695599708
1.380,-0.08484131634200615,-0.1556202543069545,9.782329953529146,0.01682967210056106,-0.0045125472963961025,0.019047365840196104
1.390,0.037036908661609386,0.04803975646512049,9.716663653275589,-0.020070376555519746,-0.008074989893802443,0.022204847377280023
1.400,0.1184256697362426,0.136360892336977,9.83766194198757,0.007612863491413285,-0.0024188227897972386,-0.00462789067194607
1.410,0.015337967918700466,-0.02288976345871359,9.63202966544349,0.007988503390770701,0.0005727650956477489,-0.017178976558924298
1.420,0.18516503916190286,0.03546828579888486,9.650073299981324,0.003677099253339586,-0.00016948002188961147,-0.00184780219831148
1.430,-0.022133721581050075,-0.064491239708435,9.751587215156828,0.006917966739274628,0.005634602747949254,3.702354139129342e-05
1.440,0.020071419239173532,0.01023411594231561,9.951351949481628,-0.005403841124302252,0.01037043550774603,-0.005306411152812062
1.450,-0.042618451726895074,-0.04802190477821141,9.685829475453781,0.0011439195494808653,-0.0026058361281887537,-0.010046965641082279
1.460,0.1132763287973157,-0.006429209410303786,9.706181890800343,0.008935685432869586,0.005433018375623198,-0.012390004942544235
1.470,0.09666982628132667,0.15616982103794885,9.7089061980068,0.010166660737301077,0.011138001745200441,-0.0024501538991676614
1.480,0.058421857175962315,0.03472520514663354,9.831472135468964,-0.03744699273518079,-0.003867220850816158,0.008608062913670894
1.490,0.11437256376087555,0.10487802473904007,9.935079231529578,0.0011485392559697216,-0.00313097854892611,-0.01928745050391521
1.500,-0.011755243792568388,0.0761936300675135,9.970942364446284,0.0022966715327507586,0.01152758545673285,-0.004188053429373882
1.510,0.09500434269916405,0.12178648089180687,9.799092570781035,-0.009021162887738913,0.005291837537623647,-0.0046763270591527965
1.520,-0.0014481901523679779,0.03419501898145138,9.725062974151081,0.0048206095948984005,-0.0015968915169752445,0.013649391205603134
1.530,0.02708246076658485,0.11715340838369125,9.925079396064085,-0.002368726811138777,0.0022531074859833246,-0.0031510860283079775
1.540,-0.029442764443848773,0.01349057119936592,9.821489250880802,-0.005628022158974474,0.019916469735813912,0.009778801679365018
1.550,0.10235742092575413,-0.02966956390442771,9.770057059034942,0.003280341103459772,0.003259559711566576,0.010433983077538598
1.560,0.06532507520077589,-0.05700640255626106,9.990469617171463,-0.010670253976374,0.027449114617791235,-0.006221102938228378
1.570,-0.029876890025310417,0.04856409106957783,9.736201418995266,-0.013659525225255247,-0.013285932428370067,-0.00046581864714717906
1.580,-0.02943658032401597,0.26450845845822996,9.78784696369176,-0.00531648959750047,-0.003986945043887295,-0.012392905345443593
1.590,-0.044369481256947924,0.09506104799662939,9.811612349233924,0.013212293928220733,0.009515244347893897,0.009028965534744034
1.600,0.0920115458599627,-0.0705914497018124,9.845805197055999,0.001901499879953844,0.01497850764276008,0.0034000106480989033
1.610,0.0669819316844783,0.14626893570502317,9.827058072312763,0.011098116133492436,0.0044896988096536595,-0.0011533383860372998
1.620,0.001741803993958083,-0.09277158202045631,9.795148229438157,-0.012823960310579719,-0.012610473193018069,-0.000696724624026582
1.630,0.10878541871813632,0.014718447647810443,9.870413338389385,-0.004029354303823169,-0.007468293426025944,0.021931351254878485
1.640,-0.11310888228635879,-0.32129940962982917,9.776646660166822,0.01869345723017124,0.0049207454731341515,0.0002246334281725752
1.650,0.023499100673613237,0.15559342630863465,9.74831765283436,-0.006501749265780755,-0.00970431406339503,0.006920775176005767
1.660,-0.07978918111628308,-0.025679720033666222,9.840456579193697,-0.006786750028276168,-0.014593497931137312,-0.007149248668915807
1.670,0.05643910692597918,-0.05219805431623995,9.926952718225143,-0.009454989398333733,0.006718825118343617,0.011602195223206416
1.680,-0.10993101472194047,0.13563167534008366,9.831754924804489,-0.00722330445872585,0.009064816669292654,0.006414646145953047
1.690,-0.09105972299840574,0.0015674059812344544,9.753348781890493,0.005871262819341504,-0.0017927825067631004,0.0019335332711090945
1.700,-0.1471690922106083,0.08590060238244529,9.685864553752964,0.028676259673204613,-0.011671949250734472,0.0037087913855156267
1.710,0.042580399837943976,0.06395240153261869,9.751235979143452,-0.01623882547724387,0.00675603430274984,-0.0012490132599230958
1.720,0.0459319206038345,0.14462149309829647,9.843477349044587,-0.0015926555527535622,0.0011348166249167473,-0.00069236787917268
1.730,-0.09219137895763709,-0.13131806091358955,9.740500914605319,-0.0028034612235982408,-0.0025366023569511616,0.004972538547232128
1.740,-0.013096685002724723,0.07276015111271202,9.870169103504706,0.0009404996898369229,0.0014168710458108197,-0.015297944303746416
1.750,0.06520736285195065,-0.033519548748271226,9.701512862660742,-0.003310535315184708,-0.004242575657015018,-0.0039002928180972484
1.760,0.004132209209842867,-0.01612372119472449,9.830059797157544,-0.0009989581002476748,0.00881907476363646,5.987185246875527e-05
1.770,0.15075223234147256,0.08584063896579604,9.86307486057839,0.007644193882429058,0.011628557741138258,-0.008793010830736206
1.780,0.011081591940327828,0.012008345386910892,9.956347447235903,-0.0007916935863549999,0.003552234247642356,-0.007073532761030425
1.790,0.043247642031481154,-0.09201316547130227,9.748300843240521,0.003152033307348227,0.012577023098670806,0.001342883545550946
1.800,-0.062189271609876175,-0.09581017577354586,9.76563395894146,0.008759425661147601,0.0067606732201219615,-0.015393871420975664
1.810,0.14671203747268174,-0.04278741046207568,9.684684475768508,-7.053900237953741e-05,0.007789782044227171,0.003634005592073764
1.820,0.011258675380600228,-0.01109282697334795,9.85291405713569,0.004241474502890047,0.014733011500061424,0.008169889638877898
1.830,0.1336804669848811,-0.11315385529056735,9.741339162940209,0.017442970402027424,-0.0007132417306359478,-0.012794046881765678
1.840,-0.018014297609283535,0.08798287092782713,9.738807811789362,-0.009258968506092006,0.008520185010212374,0.022204174885334035
1.850,0.05192073481639117,-0.01922333481542281,9.834169048709303,0.005914063694065354,-0.0036843342076530706,-0.0025064631926473503
1.860,-0.020382120938863917,0.19496416365133623,9.742429791125685,0.012196782617749945,0.005777230270035271,-0.00804912315708975
1.870,-0.014328703986228132,0.06270093946825471,9.779759247508537,-0.006646006632441652,-2.8444795248219396e-05,0.0019417243500602633
1.880,-0.09955439736210338,-0.15327519409429857,9.834914625296408,0.011316805863200564,-0.009229927877612808,-0.0021166400711523595
1.890,-0.17472080385485353,0.09167132951377747,9.805277374535565,-0.00699850359426653,-0.005009658003084767,-0.004973008475375238
1.900,-0.06579786259943933,-0.06366865725801463,9.863554695964222,0.013500931447305789,0.0030828429936119706,-0.00988504127510275
1.910,0.024506346985928972,-0.010058400846849364,9.686668062809149,0.012542746523884676,0.004425703232136448,0.015244003331943626
1.920,0.06456610587501378,0.017969487440127527,9.705690668940093,0.0038598167102645996,-0.015148082110423733,-0.014240350865729966
1.930,0.04089416332479529,-0.016400078432119918,9.973005444476836,0.013202891272125226,-0.005094565800989172,-0.005444069331353578
1.940,-0.02640778864787093,-0.18157755177335957,9.816462758970461,0.007622519724813567,0.016277437160197788,-0.011511093300988427
1.950,-0.05220106587734359,0.10802448108528283,9.622804525126133,0.0015977151510950824,-0.01489214788341728,0.0006470865397242424
1.960,-0.07877209244815737,0.11318454396391507,9.989523541110334,-0.0007811947899839957,0.003649684373748828,0.004229861042542406
1.970,-0.004095315938678864,-0.15499861617448138,9.744468308713381,0.00274229562711533,-0.0006389738230932224,-0.004474155532885344
1.980,0.056929439012869176,0.029181465981564965,9.668315651766255,-0.005065572406643915,0.009204667913931647,-0.010886510651163124
1.990,0.0797894232240484,0.1374388738383012,9.694663866825241,-0.0020133198863309123,0.012038386847551374,-0.0033775928089834805
2.000,-0.12277556414734432,-0.026793030964606238,9.890035380965958,0.0004525194820847524,-0.006067340485112618,0.00656930243843439
2.010,0.11227607923490586,0.019353091587873208,9.86179669711612,0.015313358326213458,-0.011429133187061662,0.009230469722989956
2.020,0.005284873753115545,-0.18172943431287614,9.909737203715606,-0.013491920823003364,-0.005267108724922211,0.010248036153420405
2.030,0.04511185555078087,-0.045826149626570736,9.947670997990365,0.012914038186929905,-0.00774058550117339,-0.004339842533396607
2.040,0.10227575697984359,0.1202646872785353,9.883807958323475,-0.008917356646244764,-0.005530621588029881,-0.016777516161593408
2.050,-0.06267198844299207,-0.0881259155439828,9.719645812619811,-0.00542197096137783,0.015053298113334501,0.003123815732125667
2.060,0.09106832101427917,0.02411458412129988,9.806141409329198,-0.0009008238237883088,0.0042699332093669015,-0.010418368013959067
2.070,0.019198015960760487,0.05563313107893453,9.518990114722875,0.010639899152203421,-0.00496862432920091,-0.003899667453565271
2.080,0.04199406817325857,-0.04875881901579586,9.81952283159883,0.005876343734498619,-0.003572431802075425,-0.011659932817270242
2.090,-0.022234003164791183,-0.09058501567354604,9.825320475824933,-0.0009631636628493773,-0.004496179713021247,-0.019316328585226673
2.100,0.07277617676358608,-0.08052017092176941,10.020822256240242,-0.008692654477033249,0.0008686990248044406,0.003728608456966146
2.110,0.08624403067541672,-0.17044256387635667,9.84648662130631,0.005952778890399832,0.0068721298675460145,0.004862580469246513
2.120,-0.016335458227936247,0.08972560356558214,9.857444372017111,-0.007010858099761012,-0.0024259243952321438,-0.014336258694332658
2.130,0.10057378047662352,0.12755530278983337,9.799515566026717,-0.0019856446275286813,0.0013305481174563111,-0.020272389827916088
2.140,-0.12715239344277848,0.17536438983914326,9.60791211102681,0.0018824470561872528,0.00365826583618433,0.008318174903388202
2.150,-0.3082242973967056,-0.06432192487396061,9.685817257587704,0.0077586976284459265,-0.0024816030087565434,0.016015035231286397
2.160,0.00801705987577345,-0.018133744282564226,10.008818190575637,0.0018771901329258118,0.007378330650619216,-0.008564647669878737
2.170,-0.20120893757106006,-0.003808445682452737,9.853702360587173,0.0036936447983113214,-0.0007364039732187198,0.003997131942001629
2.180,-0.05215227776404137,0.07696404091405673,9.780302641350403,0.009765194327950756,0.008187073021039668,0.0031883408114287293
2.190,0.01027316828504169,-0.03504314718869759,9.743286123630288,0.00019897248908797125,0.02029815833446913,-0.0030461861604954995
2.200,-0.12811340403465532,-0.28750022951189397,9.563377674333141,0.01168955505752114,0.019697089186725,0.005385138855673126
2.210,0.03245085780488056,0.013054928578413914,9.788143975233256,-0.004856485703196346,0.010898960932508948,0.00035106006382183116
2.220,0.16482779272547327,-0.09790529643952625,9.873862876231435,-0.0014862302858933577,-0.015805161676089287,-3.175431682513352e-05
2.230,0.05987772936063919,0.05990565800907686,9.833645054374733,0.006069928402876202,0.018528826552277312,0.01302183786073445
2.240,0.026735014663663098,0.02566284097237356,9.519333129240684,-0.01029358291434221,-0.0015490466768035374,-0.003902576061575846
2.250,-0.0042565157508532014,0.09014763782266168,9.914373023861817,0.004044972638188437,-0.000174604650146673,0.011832907907999804
2.260,0.17950192734613588,-0.0738358544362171,9.843818938467592,0.006614840579332415,-0.0060281969197615885,0.0013556734689885675
2.270,0.004409035109552319,0.01846353227718137,9.745719071615031,-0.018269974966132762,0.004553979197499687,0.008638322213690586
2.280,0.013130674213170716,0.17909431840173629,9.881377995241834,-0.0046306927055564965,0.001629204769486888,-0.004652257528042327
2.290,-0.07009295570166658,-0.08729404268205247,9.792720282818863,-0.005046917039708848,0.009614671844007385,0.015356193842101505
2.300,0.007180534082932348,0.017813339328425135,9.80446302195882,-0.004248219642909851,0.0012204899133709908,0.012275047390249233
2.310,0.10094676371106873,0.054292599399928615,9.871097589930065,-0.006483312983178556,-0.006252996149207201,0.01182629799708085
2.320,0.06645079814191653,0.060547812319703645,9.911753921365401,0.016618482308984214,-0.011952188592112913,0.009873730325028439
2.330,-0.16261363522214903,0.035864967825327894,9.885225584521331,0.005564352944202587,0.003086921409977431,-0.005574768916376922
2.340,0.021211072643596098,0.12227598578821258,9.806619450116303,0.009840262850231906,-0.0011872990626202392,0.0025659154905405776
2.350,0.1390403010770359,0.0823231830432154,9.952510168777938,0.00021437436456586865,0.012707829555583923,0.00792927492744242
2.360,-0.1132242213121345,0.0568817016826455,9.991996168754085,0.001851968016097127,0.007149109534556996,0.008702058218334443
2.370,0.15084731952895997,0.12461871017537918,9.771394557510733,0.02583728885199266,0.006521039084021855,-0.01792282215772159
2.380,-0.0688245678158609,-0.03440362938346084,9.754035783696223,0.008388444936899416,0.013748099627779897,0.022361416148506112
2.390,-0.030083685035910624,0.10160944951804729,9.808235324834955,-0.000375788719262123,-0.00376791932852522,-0.007986377646604259
2.400,0.07419804646683757,-0.11506666825991436,9.8688852339575,-0.009161179769584159,0.002038066902305975,-0.000265393276790438
2.410,-0.04365767106127994,0.03483139270833689,9.976814138253827,0.005478535471634107,0.01444033061764483,0.004653460316467497
2.420,-0.07490280895256882,-0.008832824111705079,9.663597099398961,0.011220896717257598,0.004366560529985743,0.0072850789691206765
2.430,-0.08769726733257822,0.164173008457112,9.736247683580164,0.0014209043775686855,0.013204929197164244,-0.0034821697423456444
2.440,0.0025302257483100273,-0.06202003726890907,9.715153679013909,-0.00483509765540673,0.019058530998481385,0.008052467356450013
2.450,0.08782387417984067,0.09246056518190804,9.784372494522419,0.008155334007612208,0.01916303222682056,-0.010113300341018426
2.460,-0.04684423246327723,0.1884430370574694,9.805590842451474,-0.014517180004113974,0.011567619007285314,0.005994016963217586
2.470,-0.2152862097784515,0.07061307407771053,9.831317763516122,0.005821373377895111,-0.009024715461319931,-0.011292973564441946
2.480,0.10990879308030022,0.012507025309647063,9.924522732357369,-0.019732104257027094,0.00826565946742713,-0.011896443984184917
2.490,0.07172398808753501,-0.10735534844912126,9.8415861961362,0.00920559637915844,0.02820497875387225,-0.005303481385955352
2.500,0.2094021575138775,0.052837734534418125,9.737426602003643,0.006519854793274179,0.015706947400771835,0.008332244401233644
2.510,-0.0667218920933903,-0.15726045920873508,9.779827113410581,-0.01820606362941601,-0.005914045962108891,-0.0059775670786135614
2.520,-0.026606550047066264,0.04079657782661629,9.851327478734754,-0.003411685673027812,-0.00020595786392458925,-0.001929190808327449
2.530,-0.0725207211414793,-0.07216029229214115,9.745511718388707,-0.005954196870347105,-0.015979888158968326,-0.006945666971625936
2.540,0.09094613555768488,0.07337857428529714,9.886353117553401,0.019100588585981654,-0.0019028795421957166,0.007155323920539143
2.550,0.09796944150163564,0.15067574046342247,9.858994631249201,0.02068409407769013,0.012275182322818797,0.0026425726033888325
2.560,-0.177019986441637,0.24984238394247094,9.895524947269667,0.004129555333103348,-0.009842002768145895,-0.017404789070193313
2.570,-0.06380581913399079,-0.026858336870978883,9.950546720453765,0.0025419698629065447,0.0034321849009574957,0.009556867929195807
2.580,0.02341186956133734,0.07609011354173609,9.706547230215278,0.012619263101740033,-0.007497038810165339,-0.0006766184024240434
2.590,0.18549094841627897,-0.11465309262158152,9.838294532523216,-0.011029994665322947,-0.0063528692148073175,-0.010484388215911987
2.600,0.08164603058493168,-0.14764369014817277,9.756459044326531,0.006728547125110728,0.0077247736399675415,0.016499094361826144
2.610,-0.1475217281496142,0.18227902796716844,9.705973936740017,-0.02157562154922599,0.0007978298757500493,0.007941019451879406
2.620,-0.0332200723659099,-0.12455248554228293,9.828112296222121,0.007924516918551977,-0.008700031056941324,0.008528304196744448
2.630,0.03251357482158792,-0.11702991370174243,9.634668024524842,0.00038243222522980685,0.021229588353775104,0.006341788600336913
2.640,-0.15243486501340367,-0.033231015167940435,9.826174539163741,-0.0007980559925824466,-0.007635886471781348,-0.0019933997668915987
2.650,0.1045124772027289,-0.0625877430475653,9.841975060848762,0.0066309111737935435,0.009796879945442762,-0.0018423575972449891
2.660,-0.19608989359911563,-0.045053454224258466,9.934278310368661,-0.004432339398208652,-0.010572870461123363,0.008240557306586323
2.670,-0.03329888588952148,0.079282537668308,9.908233937427134,-0.005093164202544373,-0.002645477013572228,-0.00013183139646523917
2.680,-0.2286724985046659,-0.05775127899823033,9.854969985739233,-0.01639755914179579,-0.005963279876898109,0.0005046246488006395
2.690,0.011323024189077421,-0.05546700711523184,9.610112429110938,0.008996282784039258,-0.012682930731249145,-0.008195980147090333
2.700,-0.016620634363560226,0.03023042469610364,9.664442722943159,-0.017464785632875627,0.0016034950287768515,-0.00028969574310445256
2.710,-0.013357871785000927,0.09861672486957661,9.74364687986091,-0.0016312228385327956,0.004551801672927177,0.010194772437477033
2.720,-0.02904311318066252,0.09516469146418843,9.747007304834234,-0.002995973166871732,-0.008197062040090929,0.009598382356322587
2.730,0.04820427033826503,0.08796903490718608,9.663941137357426,0.004063215187827773,0.003342865317028281,-0.02638199157010135
2.740,-0.0015743487313104856,0.07256394389368746,9.913851744101319,-0.001207823326365505,0.0030391891979102094,0.0042876283479172566
2.750,-0.11804083717630008,0.0761740887444735,9.734021263942248,0.007525950934170585,-0.008474698230378688,-0.013334503681293608
2.760,-0.022093302391398423,-0.06531539614936523,9.895585281246785,0.012859521363708399,-0.015306520315283097,-0.00470854930769017
2.770,0.0536003100831399,-0.20113396574150452,9.829460541435532,0.01131761818153928,-0.00939991701405181,-0.020284088797900716
2.780,0.06106242800848452,-0.1362444861876574,9.759174502890401,0.01185993527214942,0.0164702263453864,0.016972264490267695
2.790,-0.0012760737362449335,0.11854682138208326,9.770328043822992,-0.004320916257837006,-0.006145178892227068,0.011045818732261754
2.800,0.09539388180800404,-0.026187176248925016,10.054635612757394,-0.005201660620233547,-0.004352064483275567,-0.0027153578945025452
2.810,-0.01949812159659946,-0.0020577732097591087,9.737512245959925,0.019739261283286604,0.0159056199552974,0.0028928147020339605
2.820,-0.16595510882883552,0.015741956379048395,9.882587810824532,-0.004001143380827713,-0.013132607719447503,-0.0021875977167162453
2.830,0.14470666427279813,0.011659839766636789,9.83659324620046,-0.024880878000999824,-0.001977215334741266,-0.0038263207982121845
2.840,0.08397677421924779,-0.03277960392491626,9.728079102740631,-0.007185768162682785,0.00030706299160341346,0.012497369865449024
2.850,0.03985374240235708,-0.02774760820988625,9.779371423856384,-0.008136893844508447,0.00938788224142095,0.013940788416930812
2.860,-0.12131411641993202,0.058665707777210356,9.73464219606094,0.003200803357698775,-0.007934430377571175,0.005055587832087991
2.870,-0.06654303719785296,0.12403987938337313,9.675246842292228,-0.00334699045121817,-0.017764380427232225,-0.009071766519572427
2.880,0.08846788954778627,0.1349858578291915,9.873829869252814,-0.006249520502857201,0.018091576786972735,0.005822627214766621
2.890,-0.029299279606461334,0.03735368448443602,9.901659476993894,0.0045217743256593165,-0.014533343438808927,-0.00880392671810594
2.900,-0.03714881641283065,0.103036215482353,9.665347413477976,-0.003356286523200435,0.0018711020900772162,-0.003555152509988401
2.910,0.026826534748783055,-0.026105534998770864,9.666019545276422,0.0071776206540149915,-0.0028963283174110468,-0.01987325675256253
2.920,-0.006341610831417941,-0.026383788823572438,9.85147699640495,0.009088494196910192,0.01673297426230557,-0.0073614323606957565
2.930,-0.08428508566087452,0.049228730385374786,9.74768465584221,-0.008704856163613897,0.0013805153559406356,-0.0023599888984188926
2.940,0.0698989321069894,0.11153224699491499,9.75336561841175,-0.001318276354646714,0.004750638585678662,-0.004903537294485893
2.950,-0.09735166578505909,0.18102441592239152,9.729094309017958,-0.0138427377696156,0.009317223489066365,0.007955475877036346
2.960,-0.0473462511416813,-0.09240221134635646,9.764521557116044,-0.006568044819931156,-0.0012399056355181677,-0.013162108428278195
2.970,0.07421501031639677,0.21156216340294343,9.941099374666782,0.006424809399336654,0.010529282658580994,-0.0035530502156048255
2.980,-0.11718122165806509,0.08610874160916593,9.813096737693936,-0.011092454677911263,0.014733259287834201,-0.021234176510399043
2.990,0.11924878007781732,-0.06203989470953413,9.841629841489619,-0.004260703124137495,-0.013949331651727155,-0.003411596046486637
3.000,-0.15612896041138058,0.11201372032264281,9.798047194978691,0.001562019469305027,-0.017225142393345615,-0.01020304993185172
3.010,0.2042061022202698,0.08511285309591751,9.971802768132829,-0.007743814751651967,-0.006763513090216854,0.005984602866107861
3.020,-0.051214784311610875,-0.16851266100012902,9.805934535558718,-0.004527756360839917,-0.010814925469650405,0.014095142459459567
3.030,-0.016968969988782945,0.007852213315731906,9.74935623893541,-0.003489306213967095,-0.01888855366571224,-0.012202683664595725
3.040,0.007098683515358549,0.025577425515658937,9.651718768791515,0.0031489710415435125,0.008295589921445927,-0.0027306322844907333
3.050,0.01343946310921205,-0.06683168926932248,9.655352609340751,0.013344190231644164,0.014726483780870117,0.0014076852608621232
3.060,-0.05325691640449254,0.11224884289997486,9.700784010090231,0.012012944733113507,-0.013407214682120971,-0.011243645489911708
3.070,0.21954600806144742,-0.07606571763137934,9.699708406321884,0.0021594142568665117,0.00041526103580446496,-0.0019365504802459895
3.080,-0.028987040752105137,0.02109872593105969,9.835260803868103,0.009070116840739412,0.005823188572119193,-0.007368671980916001
3.090,-0.1076888325124033,-0.06405714632598801,9.899697952502473,-0.004385805931507971,-0.0029743425543049783,-0.01935828597458023
3.100,0.03913229092828045,0.023510714329822213,9.771578617612338,0.0034513698840097405,0.0013070123988501276,-0.009479856970279935
3.110,-0.015457001923829303,-0.12497472318856531,9.743210377168952,-0.00589558017154755,0.018858728229965694,0.009936639282970384
3.120,0.0784523682524022,-0.030919423531626973,9.789465690074842,6.77712591006661e-05,-0.007265959618899976,-0.0182736792053879
3.130,0.039667389721663705,0.09908500020791791,9.638565075444204,5.205517066155074e-05,-0.0017715253814074112,0.007002961788861402
3.140,-0.005455365952102003,-0.2381895753610305,9.820989179417408,-0.027716042831694623,-0.009569577941116854,-0.008235996157327508
3.150,-0.07803569111806039,0.04873875528975808,9.75427427813251,-0.012601573686330357,-0.00041037924808024596,0.00046976677413227726
3.160,-0.06733991871306737,-0.1731429134871534,9.759649155125237,0.0062393738709661944,0.005237648572725262,-0.008555387252110044
3.170,-0.15473644108823392,0.10097706772914594,9.760426133830945,0.003986010891887757,-0.012327693401806386,0.018009344506771514
3.180,0.10387632469652829,-0.033203443721495154,9.81829872111028,0.010889217439084872,0.024825282244305146,0.014181432496958572
3.190,-0.019372516415797902,-0.0007489078276393059,9.831611341411676,0.01551401889680248,0.01732505900256958,-0.008834746163516349
3.200,-0.0847032856255386,0.07183326237590676,9.87260897242969,0.009429968690308665,-0.004870935943693974,-0.006709175122522514
3.210,0.1587939982082889,-0.0022293276507407583,9.772362688017175,0.01200104881992041,0.025323029707419994,-0.022783855085914084
3.220,0.031188337323582612,-0.04912613083586441,9.935531006394687,0.018024249923062348,-0.0005979290058272306,-0.00365133540592196
3.230,0.07320548065195646,-0.030704563569850435,9.780311987389103,0.0029128098585539243,0.0025315829056928307,-0.011814903507718345
3.240,-0.03839774299381542,-0.07851814032414828,9.719682094298449,-0.004320362054252746,-0.0022599379181489415,0.005717152495278334
3.250,-0.008455264743659782,-0.04514253758413286,9.826205853657074,-0.0026996481034945925,-0.0007767151407400651,0.006689356055705795
3.260,0.1585526635192881,0.029098455740022434,9.757718421488281,-0.01490348824114327,0.010704349644410898,0.0019241676907795332
3.270,-0.17129591323831037,0.14814805918218696,9.828798162874202,-0.0024416001554236773,-0.0023446225716339127,0.004516131007492531
3.280,0.014800670353425914,0.12271803767981851,9.854745546410562,0.0037517172787712738,0.004674776545724983,0.005733823627043937
3.290,-0.0397385272234131,-0.044342171794078594,10.029257409377655,-0.0031954249155041014,-0.006004978442237654,-0.013245956707820125
3.300,-0.10307823774388654,-0.11183406240708343,9.8372550785212,-0.0066833229655356334,-0.002208815159176804,0.004994531894100515
3.310,-0.08752843552564535,-0.10928720417657894,9.891565995742871,-0.010289778509837526,-0.011434579296404922,-0.0033348734129801626
3.320,-0.09003253217879291,-0.14340528079082418,9.829883595300126,-0.0004173808116891848,0.0065520156218912265,0.005462876117214522
3.330,-0.06133926298275982,0.12799444163055207,9.913744528775938,-0.001075288975194547,-0.009629007633385967,-0.005745321479220003
3.340,0.06232232162986048,-0.107134207423342,9.946439996999594,-0.002883207661917184,0.021082687745864713,0.0017943484996386517
3.350,-0.14429799176065328,-0.04022643728936873,9.77840860658379,-0.004730421108632441,-0.007935048296901089,-0.0025079278704933823
3.360,-0.045528196095564334,0.08074467753672754,9.898796422661423,0.015226432138032302,0.016698715700522174,-0.007076811914407761
3.370,0.05590465919009816,-0.024360895036954416,9.703875435927408,0.0036157061002361542,0.004357219736251188,-0.0009999067342067731
3.380,0.08342901505956993,-0.1388576120365673,9.830833995218525,0.0037087759470806557,-0.009692500591183857,0.01460420787206793
3.390,0.126815436766789,-0.03443398738083253,9.681678866952597,0.018962322729276986,-0.0006014309913522711,0.012995722939451278
3.400,0.08040147021704395,0.03233153095740906,9.741685714130064,-0.006344556900219346,0.020015645463578428,-0.01561242982406627
3.410,0.004723812458142493,-0.05134710523162731,9.780023125338001,-0.004922510905810749,-0.02307666298618724,0.003269414544243852
3.420,-0.03470375321182375,0.0878765539644072,9.866886327183172,0.003281851227370383,-0.0002351296839916351,-0.022157031247400493
3.430,0.12473442043121413,0.005535486380865177,9.740258970249222,-0.02385828686665597,0.005101259495550432,-0.004039487944437222
3.440,0.07523911654601528,0.08755799176369797,9.76314748742019,0.00806868389928469,-0.0060279032662499425,0.019369171167017696
3.450,0.0583246455677062,-0.09740352084088519,9.849230124964011,0.005701848541464649,0.0018609684640068667,-0.006648097075679519
3.460,-0.012673307236461331,0.2680124028155888,9.712078004738855,0.00460690124437037,0.008879739847509028,0.006369361152701879
3.470,-0.017707222838886198,0.06094139432461616,9.855682324680227,0.001563173217015998,-0.006426448841940785,0.0054281045273548365
3.480,-0.007399972272727282,-0.19583574173602158,9.51333941433108,-0.00011298251687599067,0.010157771172822981,0.00617077907118503
3.490,-0.03575665231073398,-0.09014704993196027,10.054474041924301,-0.0059112868373838055,-0.008120825479596349,-0.008319764184125906
3.500,0.19839246197947427,0.011311715992569861,9.80907057831813,0.00011229987312137936,0.0019373932624968532,0.00696666123018712
3.510,0.01647780663446029,-0.11632326556695488,9.802949425813159,0.010128198580585864,0.001491575171186912,-0.0010822178651397041
3.520,0.04243769153192989,-0.0647934423979751,9.812074313757467,-0.0020576926498066662,0.0020273273487649516,0.0066414735993908045
3.530,-0.07753919780204382,0.10329806655726947,9.957939302025483,0.007608224562181989,-0.006473619974008661,-0.017883305579468867
3.540,0.13180025322806235,-0.15539598974676713,9.904241572843997,0.011293072347374523,0.019000783215236274,0.003436789869480882
3.550,-0.1626995527160531,0.09252223401890752,9.693309894971446,-0.006479335916272458,0.0014090714818680782,-0.002059364210152304
3.560,-0.10099657983391926,0.10697500753361783,9.990974119710344,0.0035530865448887353,0.0058511439343100395,0.004385005630831288
3.570,-0.018704978478512085,0.04863547361731407,9.860151727331807,-0.0037273272700685785,-0.009483079299971582,0.0065578642237428845
3.580,-0.057717176045610885,0.25413933291031154,9.860481063624832,0.014741630369598205,0.0017840066447044121,0.007710885714484062
3.590,-0.03442174968253452,0.07335452825639044,9.612239822804613,0.009264797938447955,-0.0026197322709318803,-0.014366149356422688
3.600,0.09987458288907003,-0.09554522422119373,9.79853709027747,0.004232089498160575,0.012315263118111541,0.0066165238046781115
3.610,-0.107389023819779,0.052251734174299895,9.645156163126144,0.012041771812898505,-0.007228210521334217,0.00029718596637783246
3.620,-0.029013659861538116,0.2478413938313262,9.812997534718054,-0.0050036597043563134,-0.00886948731473008,0.0014988233251266164
3.630,0.18115292763564128,-0.1010374539846764,9.910798102541296,0.010882539612617002,-0.006330558043565014,0.0005154577048163721
3.640,0.008012867043452485,0.16241986207986925,9.824248506720428,0.016704072555832682,-0.00287909427366368,0.016406688986818862
3.650,0.015994756596122168,0.12353544059772846,9.899405970268285,-0.01012675353665198,-0.0068182380703430065,-0.01023517481803427
3.660,0.059568536850381916,0.1207924029504222,9.711036165373738,-0.007771059132129304,-0.007331930192391049,0.002630567605872464
3.670,0.054223293234380625,-0.038165065176249395,9.862172088625586,0.002446898625510979,-0.004044958454257711,0.015259866143278327
3.680,0.1453480727812328,0.09173715009473982,9.966238146772959,0.0032383340112799304,0.0077786419872553645,-0.0063961421978556265
3.690,0.02049767773793272,0.20538108041191144,9.697884774086765,0.014205102778757247,-0.018615919746916957,0.006858275283465677
3.700,0.039866842298049654,0.01826884811203334,9.680000480290817,-0.009680404598778653,-0.01660705032021556,-0.0019500730418613558
3.710,-0.04296611431587336,0.0045122080714711426,9.775553897615323,-0.005848504124123341,0.0009886783061707155,-0.006447900425785512
3.720,0.255107286624101,0.04014615737275015,9.598189974699647,-0.013415789777682019,-0.01530111979092721,-0.0005104261750601658
3.730,-0.05637973286805745,0.058385514991562006,9.902850716446476,-0.005617066780278243,-0.019288605400483088,0.01094029473430615
3.740,-0.05740973711334627,-0.018610341025618614,9.850898412772787,0.0021893429648063185,0.003939382239249609,-0.005503423462149045
3.750,0.06512385706786546,-0.1390544537199405,9.75604523763816,-0.0005454667222568925,0.00958097294854149,-0.0011668866757611972
3.760,-0.04222092051309129,0.024275913874860267,9.764655708784495,-0.004076653717425214,0.011691767519229866,0.002964519288217139
3.770,0.13383847881822272,-0.0540802204176613,9.906130864148077,-0.003432892723900839,-0.0029198825480169603,0.01156399892556996
3.780,-0.10883061644250636,-0.0059934531514005615,9.771317377157766,0.018554266996121945,-0.011893770918412086,0.012162497499999588
3.790,0.034916831419670766,0.0385415595206085,9.8363421280851,-0.01410892234953256,0.011922063964236401,0.014379903882345522
3.800,0.030789676401579813,0.10678570470948588,9.88766968680349,0.0028515422813161395,0.02031221158364536,0.00703002318479248
3.810,0.057472900437193046,0.05986136634948163,9.75844725246362,0.013849537891701277,-0.003709526636466095,-0.014476032167125698
3.820,0.19875579395587026,0.047672132245414375,9.84418440830683,-0.005441608835540321,-0.009141326827269942,-3.221744668215052e-05
3.830,-0.16354364599744245,-0.04949848633625617,9.754950463207516,0.005492096755775956,-0.0006208907933306012,0.00875245506984328
3.840,-0.0523830106793753,0.0746974464379405,9.816498773161026,0.0016573120930081326,-0.0006004341693802156,-0.004564581177058747
3.850,0.13034020213200506,0.07044857123734764,9.926603914414306,-0.01685683161602036,0.007070015272126493,0.014093712295949037
3.860,-0.2646720525185488,0.07479735593215296,9.783535623231034,-0.010610621445780856,0.012872333286071954,0.005661020682104513
3.870,-0.13079602154708736,0.13058671926938845,9.711804682253206,0.0021249059527120905,-0.012385736101147527,-0.008718327402220486
3.880,-0.2138721069023043,0.03141782442940668,9.76101460564306,-0.006435659383349862,-0.0034128573911689332,-0.008718003612783548
3.890,-0.05867702197382645,0.1209638953954359,9.695113931497612,-0.013739881247645145,-0.008138194580419193,-0.007964741880570428
3.900,0.07734116737206764,-0.0197601383433057,9.765285450178695,0.008442468391050036,0.015910272222190564,-0.006636353128284247
3.910,0.11297822020432835,0.07648584300337441,9.915599208314113,0.008420795743778001,-3.794549758059889e-05,-0.0006593556548471802
3.920,0.02324983577044385,-0.08578362282994001,9.79078658492207,-0.006587727740961989,0.017112400563177525,-0.009237862508205264
3.930,0.22417684843326546,-0.08097679313806545,9.842553784440339,0.005226049512412727,-0.018114968427454935,-0.003642015042762107
3.940,0.04073627404298444,0.025603145572990916,9.87739324742299,0.0030609070489340078,0.02330127062915069,-0.008341152962748009
3.950,0.0868359873633926,-0.1788094084166774,9.93376855741296,0.012943949568152487,-0.0007445522930276372,-0.0014500955226650525
3.960,0.08265795691167678,-0.1100257504046261,9.884666340141774,-0.004985135218394199,-0.005299173755353517,-0.001129001952491513
3.970,0.024508341785169904,0.04567585421237991,9.802477955132288,-0.006056616551194514,-0.014609255735566984,-0.009087064828635213
3.980,-0.17608955388155817,0.0021384784840033314,9.924995059031557,0.0025987270857989755,-0.01169250426919959,-0.014656934770912199
3.990,-0.1520863976527963,-0.15553321092808992,9.693968715277435,0.0034425684573116,-0.016382140827905324,-0.015699353353259848
4.000,0.06640084789364879,-0.10779015428601862,9.723045659938519,-0.0009511230508022834,-0.0034701037235833625,-0.00027846895410376136
4.010,0.10765979933210675,0.025148088757130052,9.610291528754406,-0.005425584731321364,0.006376382846390181,-0.0007490225855298552
4.020,-0.09328451564359413,-0.11850295616621875,9.972698678010007,-0.0033501045636393167,-0.003507324493749194,-0.008018827945385719
4.030,0.04843796573918935,0.08088026425909682,9.791733544269938,-0.0033285398542985453,0.01774260487241479,0.01043102616968719
4.040,-0.11769353180119663,0.049206777692432396,9.789634030999503,0.00600729959702174,0.0019870597986138914,0.010748929604434108
4.050,0.0349340394082474,-0.15219109582015303,9.745702150986064,-0.009176161221241791,0.0012793254856544828,-0.014013797844248894
4.060,-0.007481806966180319,-0.1298622300386957,9.871318610728741,-0.0035203224906242576,-0.004651388064207301,-0.021569728127410294
4.070,0.05723697524786952,-0.13714406335084603,9.695303464424072,-0.005959869460439519,-0.0032913081320649646,0.024258094488552723
4.080,-0.03478448338814871,0.010184816688232581,9.711343805979508,-0.001518171533586761,0.007883582193995431,-0.001828020389867979
4.090,0.044349960873650014,-0.16374707862333046,9.757678451079142,0.015497418812258735,0.0020574247876886036,-0.015995245910802473
4.100,-0.024113185784861237,0.09044300078611718,9.813749274089375,0.014113878070260258,-0.005494809600970031,-0.005208163431503194
4.110,-0.0609513919814321,-0.05534537363493985,9.792240695097956,0.0017454027978545707,-0.0014604584641646557,0.005591833078470359
4.120,0.08537164194846894,0.0924372843196082,9.912200152296755,0.00691831595968637,-0.0017586831505245215,-0.010764066112923094
4.130,0.03671851355967679,-0.09460094393510989,9.917702541555743,0.0017372107717630667,0.0024745875650085155,0.0065428908971255795
4.140,-0.031203101648067385,0.07175426828574116,9.882042240926292,-0.016649610432541265,0.00710178408426791,0.010812478928996486
4.150,-0.02234885806335382,0.013406767122311064,9.785717208252192,-0.01741784448516768,-0.009041919398506761,-0.015187064276962191
4.160,-0.03597127614286722,-0.05096835040669417,9.831595630678597,-0.0028366356152166278,0.013460298631309504,0.00684035931163916
4.170,-0.18456412508992362,0.11294939179156578,9.943749885609042,0.007431071903832447,-0.003236074343361493,-0.0028067526759901528
4.180,-0.05915528685711843,-0.2748521761940753,9.998404308482842,-0.005247873459044367,0.008884922079356768,-0.007381773470327142
4.190,0.01182053043240433,0.12883961534071592,9.791415471623036,0.01626499214226581,0.010145240234847032,0.000773161341424386
4.200,0.16171335631754194,-0.005842735518440994,9.765935166301249,-0.014166743077032978,-0.009427553024995297,0.004134818638688899
4.210,-0.0051573354422781645,-0.0733048940256849,9.757698144180253,0.004002238935775146,-0.011198008494704323,0.003193499318514401
4.220,0.08427372349441765,-0.03251929998281721,9.88150616699716,-0.0012113709471243176,0.001588328986354822,0.003417138488881873
4.230,0.042004531675487844,-0.005569226211438566,9.803767363272696,0.008377104969613866,-0.0054156028141090495,-0.00803621031676701
4.240,0.1367821014927854,0.06163406565237614,10.009448963603129,-0.01085588068054417,-0.004567292892725004,0.00019893431241366593
4.250,0.15126024985185155,-0.02117399960769907,9.831520128101475,0.0011709252085241497,-0.005899042094750745,-0.008783332777646783
4.260,-0.21495441486755948,0.09905703687834927,9.76486971484311,0.0064579175187457274,-0.0005973741494868572,-0.008062983314199038
4.270,0.031312223318845055,-0.12003567376424665,9.871345078213334,-0.010918181863364365,-0.004811481891380698,0.0023372534566046647
4.280,-0.18810468923808535,0.09134414937198122,9.912963203317181,-0.004815256416584467,0.00904015600584544,0.0017846287581071614
4.290,0.09590133658000873,0.052689445420668,9.93033189193725,0.013533255162316014,0.002111273462561919,-0.00766545509410251
4.300,-0.09175876357712542,-0.16070080070584516,9.677921761728811,-0.01421827835119679,0.001951043847487874,-0.008429191345617752
4.310,-0.06922390727389578,-0.1729173711733527,9.67700745939129,0.00033701485388360343,0.0030993395406099327,0.007577368184793364
4.320,0.06208723941626611,0.08508479476902497,9.724798054726696,-0.0004500960061570502,-0.007256605718848681,0.004275315157007003
4.330,-0.03550340214683637,-0.047312464208626975,9.72268898182217,0.0077962748803130704,-0.008003890845171762,0.00990658024016204
4.340,-0.12219268994700061,-0.023358950356797047,9.954086651660106,0.015208626197276958,0.007198530639915141,0.014035541817319083
4.350,0.05313492206960181,-0.004254250319183063,9.881989274130678,-0.001931924087983133,-0.010963450679134304,0.01470114111430352
4.360,-0.13814388866803393,-0.09036484376110854,9.836572031873775,-0.012553349201556303,-0.0029429771843994526,-0.005042484883482752
4.370,-0.0810971184484384,-0.07523544758769521,9.807188537940096,0.009538675302997427,0.0018899382586804617,-0.002130519188267217
4.380,-0.13543276156051787,0.11687636723065463,9.756221998223443,-0.007147105934744989,-0.00043993526314618564,-0.0018264545952663919
4.390,-0.06666033177841812,0.08507162192904383,9.82210097934401,0.005426197014195171,0.025148235418553815,-0.01444625567820349
4.400,-0.1622861960049164,0.10257350836095461,9.853225816547742,-0.013027774722991155,-0.013069219719971187,0.012163454251154686
4.410,-0.028051531356705763,-0.052070346386368066,9.79981392728299,-0.005403797063719818,-0.009205936630253946,-0.005413501729187942
4.420,-0.03909816435090621,0.050415266536672304,9.596790809231075,0.01063859924345306,-0.00973891475156546,-0.009180453799448384
4.430,-0.028954152781007006,-0.17319300848548735,9.834349840531944,0.003666837721614161,0.007567877015593766,-0.007523361015071215
4.440,0.1757296857225216,0.09592786575593848,9.827019003550227,0.003063800345401495,-0.0008897188461430704,0.012152284087016931
4.450,-0.008206345409613245,-0.14341203597012778,9.776144099154948,0.02900967756013424,-0.0058598419630001425,0.009112819681706876
4.460,0.10626238692893045,0.1468937894081609,9.8275050335388,0.005437895722885629,-0.004330784786566496,-0.0037642543669288947
4.470,0.023147518028368064,0.008906571747494109,9.742301223096531,-0.0016118960631975967,-0.001766681496837079,0.00999841711815398
4.480,-0.039799562604864495,0.014829328668908119,9.755369682636166,0.021051838753678092,-0.009134886826786755,-0.008732330515322783
4.490,0.023547490833862126,0.09045121426100426,9.705903558908835,-0.006674118728516699,0.004398841173564204,0.01015647400221136
4.500,-0.0033510410942871128,-0.14000431116662304,9.710475859643664,0.001700467968304997,-0.012182412576210111,0.005585475228100092
4.510,-0.26453162974498545,-0.1381270215588882,9.882586695688797,-0.011871455978451356,0.009741062236729343,0.006422964158606324
4.520,-0.17234006497112744,-0.022372021090233757,9.806594063630053,-0.0054143010140097,-0.0017776618904268666,-0.004065758155821429
4.530,0.1013296384358823,0.05527188989109888,9.943584577661746,0.004471389863611773,0.0062580102768156854,-0.009913418884866203
4.540,-0.028524598776044175,-0.04326453283569675,9.823808442177949,0.0064415708766282255,-0.005021927954309502,0.008326751945630338
4.550,-0.10838498438741309,-0.0035087620002135704,9.991758204935048,-0.0005554023617977354,-0.007661205834155982,0.0005938498672666983
4.560,-0.0540631266807904,0.0896957144572137,9.62562336593671,-0.011363319549597278,-0.004150581499037713,-0.002468277663724133
4.570,0.05375678716364717,-0.06318361143192418,9.689509391502135,-0.008300033542422652,0.011498968895113655,0.00027016653496311603
4.580,-0.03594299079033817,-0.046335081383431606,9.864084202881566,-0.0040422141515486084,0.007823896845318193,0.02266149058446736
4.590,-0.08076868371872131,-0.037773099259239176,9.718231629281421,-0.014865146577020682,0.00845351273824423,-0.0006533060369624362
4.600,-0.11523161114573743,-0.17947093238472556,9.691665753802027,-0.0010630818473968582,-0.013406816227184957,-0.002228522128094877
4.610,-0.03455795372007245,-0.005190085595812314,9.8383529063346,0.012070418283074442,0.002957111332323882,-0.01420224005119637
4.620,-0.08473471503173667,-0.09112912323482926,9.738003653780567,-0.018449420587943705,-0.006379102537820595,-0.0016323301127946768
4.630,0.22194055623499886,0.050696592596049916,9.844494596873512,0.020049339190328294,-0.0003434809818718521,0.005357076078132437
4.640,-0.03242520651202638,0.1621760598507701,9.771698752834254,-0.010624632271180235,0.006752262229600455,0.017124970193290873
4.650,-0.11326639499989151,0.06974559881999289,9.816211397408026,0.0004684344180709766,0.010091464305832855,-0.0006128953561835502
4.660,0.048472735090588845,-0.02815572109073183,9.753788947023077,-0.015302307131141533,-0.006633971969086705,0.00494097639603078
4.670,-0.018536052254293216,0.038517114599108664,9.702519726852906,-0.0035623053254046112,-0.015733355262143797,-0.012232861339399539
4.680,-0.05058414994851205,0.0836304631750694,9.893370570992406,-0.002052075085379627,0.006706786457101544,0.008122576784118499
4.690,-0.14163246965519427,-0.19770674807419203,9.8363851354054,0.013908694238149045,-0.006153418945919757,-0.014266776501552399
4.700,-0.05544578689822591,0.07296216205974544,9.773914718807632,0.008493357913210651,-0.003394345111418133,0.0003357141878813185
4.710,0.06673585580785373,0.13037751075171375,9.805396321181496,0.0040181495863571585,0.00018402502707383809,-0.011518698435607556
4.720,0.07039883627597744,0.06654927712083161,9.684170079401333,0.008619866460889606,-0.006975291542089567,-0.0009713114772606803
4.730,0.05575373192798627,0.07707457079685905,9.86259749259159,-0.002066856595853723,0.0017568865874621553,0.0027351270189544326
4.740,0.05938021804403474,-0.04533632680866087,9.90030130807919,0.01711618239755493,-0.00825132693549154,-8.894547420974546e-05
4.750,0.07994692809956028,0.027721259479726812,9.785691290867634,-0.001509027139988019,-0.012738344139828155,-0.0021192649658590074
4.760,-0.21829065667026157,-0.1465044600893844,9.800883823067775,0.0019353905690680387,0.0011741228968134246,0.013885568239857394
4.770,0.09177391543371362,0.05176564206010005,9.76597337034449,0.013768098057352287,0.01820451621223808,0.005981362185052498
4.780,0.12895210436220642,-0.007320148333668776,9.80338398997433,0.01803018376171603,-0.008492471231985967,-0.007486058813967422
4.790,-0.059270295039449306,0.15091028848461516,9.72150099316106,-0.002967334874013079,0.007548804529806877,-0.011842594749111732
4.800,0.0699714611593136,0.023094150209177836,9.817878637427757,0.006339726950542273,0.015404778425517771,-0.017019033940422094
4.810,0.09654195128163684,0.07801446824850172,9.757453754875465,0.0046961357589774076,-0.0043549520744566765,0.005652444744649165
4.820,0.10404320096862024,-0.050413776823953184,9.999636232996622,0.005604535527986928,0.007603485961092738,0.0010679958773850873
4.830,-0.06463705736916137,-0.05581735893614451,9.823000918850578,-0.010768776763563108,0.011059242545400584,-0.00018545431127697768
4.840,0.11726822379046908,0.0046023754189673804,9.869166229185051,0.019504643524809497,-0.0016197096187765794,0.007898121220521217
4.850,-0.08947734308010923,0.14521757340710173,9.691317219902636,-0.023470612049135236,0.0036327333749152425,0.010557199145178721
4.860,0.1918650884376366,0.11384851389830485,9.94726536752484,-0.018643683238416708,-0.003509011981750655,0.0010007509412558134
4.870,0.06617373394462515,0.16105979513936736,9.758500660853702,-0.008105961434818083,0.001917298452453791,0.007552674151651618
4.880,-0.10254913415774039,0.06674576275568332,9.720569980412101,0.0005539569747289411,0.009356559496197677,0.007424284736397441
4.890,-0.17882635766605062,0.08992371867868079,9.68817106928181,0.012666433440211454,0.0012350617860103271,-2.035336331637959e-05
4.900,-0.10052290386621734,0.0033778343563464056,9.616630712945335,-0.01489863996774639,-0.014504931508716868,-0.00021978723748585803
4.910,-0.16495313961743208,-0.21068641991063564,9.724636360098925,-0.0017399371925133397,-0.0050322909755300994,-0.0024569363923841224
4.920,0.030818302892656853,-0.06776871103400615,9.930024068380185,-0.004730926954428795,-0.0021123925358115326,-0.0041466301133719985
4.930,-0.10056542396365796,-0.00801150700559208,9.79718495563668,0.0006468207541518404,-0.006037893902278649,-0.010323395099583714
4.940,0.036060184398017975,-0.0568464749120951,9.767861471824038,0.001615543085521357,-0.013976150691615508,0.008342994026635565
4.950,0.06679054661699814,0.03246101258523344,9.882212919666388,-0.005418939968530743,-0.0010495545421026315,-0.00664111730430273
4.960,0.08375414685104,0.023283942632578374,9.739359630171553,0.006306016790564921,0.007091507682803389,0.0026402373101538862
4.970,0.10381299345120139,-0.012950254446231421,9.664372153792314,-0.006241293667783437,0.001900996786778931,-0.010261878105198463
4.980,0.1250430125100265,0.06324882899668742,9.767714805720647,-0.030396221687318745,-0.003885053798438669,0.003972771645971827
4.990,0.022796066951570867,-0.07035333311800535,9.902760086540455,-0.016526468126919356,-0.003322233467330422,0.001781502792174733
5.000,0.014737298069608535,-0.01432860257658045,9.733277983209787,0.006895524388724351,-0.008544553655609941,0.013035495463462799
5.010,0.08018762055212306,0.21517426224436487,9.673768860296333,-0.0012013113905119212,-0.006855751996226439,0.011537919034195479
5.020,0.0038202741359875166,0.11599946778309758,9.742046241668,-0.002139794163637755,-0.008337690030694357,0.005681637948884184
5.030,-0.008348422365993763,-0.11905104756238725,9.90433717355422,0.009810704634140561,0.022624006897024186,0.010157445317208231
5.040,0.07011470441064517,-0.09412498111753152,9.854901126097692,-0.0033687010787772542,-0.0050671325703055175,0.0053479153588583085
5.050,0.005472843740197863,0.04784464723407795,9.873989409857051,-0.0023132335856619764,0.009704162962046292,-0.02060274292577571
5.060,-0.05899202169660294,-0.06598867679714535,9.79515493231844,0.007557664380203585,-0.004100064167122086,0.025356059491372415
5.070,-0.036416521240742024,0.23544525086589735,9.927696521713482,-0.009964056490884174,0.009729419503139021,-0.006821120332390498
5.080,-0.1950185488469602,0.037232346112290586,9.92528993106045,0.005489432043555088,-0.007250457712263653,0.008327321469107049
5.090,-0.12305093468411854,0.0815805516513352,9.809705140446077,-0.013211477697782772,0.024035302301523478,-0.010393276843162234
5.100,0.17666059915792406,0.13521120289165375,9.788163023894915,0.008942653225577886,0.012857141769284963,0.004129363710511274
5.110,-0.15847703997780271,-0.0680249990820974,9.756133952088465,0.005965394407347962,-0.0032475995237359607,0.006862347638882989
5.120,-0.045806028220141924,-0.1265271314916027,9.650702787433648,-0.01794168287064873,0.004845957111209004,-0.0020746886479004727
5.130,-0.10369091774919487,0.048611575832292114,9.784333913362008,0.010442077851192525,-0.014539933728928114,-0.006061435371254859
5.140,0.07256196145357069,0.21432526973857763,9.777430526792578,0.018275253361975472,-0.004582143664659474,0.003925378246444117
5.150,-0.05950437138599146,-0.13740146272574047,9.767487789759787,0.001534384617035803,-0.0021791057669865734,0.0038633701529254155
5.160,-0.13239467604800556,0.04204122976787678,9.779634778234428,-0.011812121786672578,0.012520877582580713,0.017838149073823046
5.170,-0.04439323483541095,-0.07184853785613611,9.777599078025064,-0.001453631721080052,0.011050296366783119,-0.00846577762158884
5.180,-0.022568479529604234,-0.1472817266870639,9.929045145995788,0.0014050330769781129,0.01246265213988276,0.0021624253094151493
5.190,-0.05868656028058819,-0.07948359655846124,9.817187658135788,-0.011399018844146848,-0.0031141227720251747,-0.0009639037034962588
5.200,-0.030207221040099853,0.12294175325535456,9.884204112864072,-0.0004690795641595907,0.0038381175938824925,-0.010545940563567969
5.210,-0.16302293343393748,0.0044654502210412774,9.958547883550125,0.0062862561307339675,0.006886533292974384,-0.004231862812398543
5.220,0.017687958625798122,-0.05149830949876665,9.843079912697851,0.004032678157943492,0.009945409482630181,0.000635589704668678
5.230,-0.08321143271292329,-0.06552692807133682,9.953504263879065,0.02178893405391164,-0.0074524810571937865,-0.0028260609953761713
5.240,-0.08651716733279602,-0.1823844072830017,9.794629562194414,-0.006492314591119517,-0.014750624121376408,-0.01594112307771197
5.250,-0.1014884080212397,-0.04389412636754386,9.64270048877272,-0.004969707537857622,0.00418877026729273,0.0017439229297456635
5.260,0.008800107530467664,0.08399267366763623,9.658644445249726,-0.00512552157016414,0.01522182731852237,-0.00998839479124118
5.270,-0.012004351454536426,-0.02447339655547511,9.715944365050005,0.005723625413893889,0.007346796677621464,0.005088678371054968
5.280,-0.1268721828064829,-0.03160792187692046,9.934296326218556,0.00321144512807469,0.012261630419722114,0.006004147399499378
5.290,-0.029392912103908483,-0.030730737333334618,9.871371979939436,0.0015178465046166295,0.0018109687824016186,-0.013955165605703439
5.300,0.06293608828506797,0.053922942319638026,9.876447187360604,0.010651948070273308,0.008541669027709442,0.006620300796983933
5.310,0.028007743730203954,-0.07450364199928818,9.733903307865846,-0.02006611946465163,0.009176404556328495,-0.006323451366912011
5.320,0.010037254981766372,0.01138852363533349,10.013403702062478,-0.014803975970424568,0.013728827092241686,-0.012741873625512809
5.330,0.14298079324885732,-0.12645546979890276,9.891875582231544,-0.008961666710269186,-0.004811364530283479,0.001905470561003636
5.340,0.061046666678589816,0.004558899650750594,9.809546048081623,-0.0002454931320591645,-0.002661333580029022,-0.0017635145637096522
5.350,-0.06783789185340512,-0.0070408201790722914,9.93496297013194,0.01217762081190124,0.0019327161383524583,-0.009657024119304343
5.360,0.1542385039967925,-0.11814183903435888,9.683595565381111,0.00985116701069897,-0.00019720098173675422,0.006327275157605173
5.370,-0.08738498654702162,-0.14701094495739433,9.888442857868991,-0.0007625900380888717,0.009237908596759617,-0.012458551454237748
5.380,0.07569666020351004,-0.05298521118183272,9.835404340193335,-0.013177624814472379,0.003633688506328435,-0.017309978947887963
5.390,-0.01528579864633664,-0.01565599416317442,9.814466100569687,-0.011882351117548175,-0.00651864823376539,0.020840638936075285
5.400,0.09974030883939276,0.1558874659223165,9.91342609479199,-0.0026744048137485594,0.0059884167400406285,0.012135684641652815
5.410,0.07252596422530151,-0.14326589822627755,9.876004124164556,-0.0012789499040342437,-0.003115161177929016,-0.0018742640146667334
5.420,-0.014857255916010637,0.006569288928204824,9.906638871586333,0.007364107271300644,0.008893504961480147,0.004505123249459258
5.430,0.022932597349438477,-0.015381612549508625,9.807913836021436,0.010044126722436146,-0.015871882141344513,-0.009668786031933933
5.440,0.18333418417903524,-0.01161224916102341,9.914512161601168,0.014964408239930673,-0.0008402037140753841,0.005165138972606015
5.450,-0.10147286470893042,-0.1016671966795844,9.688505064385739,0.00777220341914989,0.0009094565732681301,-0.003549121246830379
5.460,0.08550842539568818,-0.1419703558204993,9.670989050564367,-0.002829511254865774,0.017022075022103043,0.005506927150306987
5.470,-0.009298715564764302,0.07680114290033963,9.722454266098202,0.011018553127649022,0.017288825239039626,0.0001756576074350803
5.480,-0.00394210055898229,-0.04511126083887568,9.83133829438363,-0.007877500932769458,-0.008455897855653332,0.00267541628257127
5.490,-0.06503522713773231,0.03881703068653691,9.908772080031953,-0.0009216054819699351,-0.006775349586169809,-0.001200956726866482
5.500,-0.16935342181146582,-0.1077714689175592,9.83794866377635,-0.004962319984445231,0.005208813080124057,-0.01103955322420265
5.510,-0.165145835917301,-0.12020209649661562,9.528707368795262,-0.003353812356595314,0.004223518177354401,0.010083697825425975
5.520,0.00891215724300459,0.021452860359501537,9.880465107866259,-0.02048053607542756,-0.0026763729149169575,0.0005854677654248008
5.530,0.04117322912441497,-0.051361486463692055,9.88575212192949,0.02250055210413093,0.0004200933729689552,0.010264854227444888
5.540,0.1324764097630449,-0.06744094172429092,9.75924614274948,-0.01106913362877221,-0.005853302711884618,0.010671949000169016
5.550,-0.11108291079525937,-0.031157183769645536,9.755993869762666,0.002846544420764868,0.0029384758492608477,0.009374930248070755
5.560,-0.05688011451569082,-0.016166863868052245,9.728337724057301,0.0020673775013684216,0.0007925392211994425,-0.007414529415838889
5.570,0.14640389553348052,-0.060088864042276126,9.791868520364181,-0.0014714491872126368,-0.005680396142771247,-7.724779773835072e-05
5.580,0.07688628287962149,-0.06621669126480219,9.697594505937891,0.009610534547047125,0.0037261761276105782,0.001782311682072672
5.590,-0.027301004237175006,-0.10343202593681725,9.859309034630897,0.006272159602610095,-0.01675209511509002,0.011035289313011237
5.600,0.18078628500243474,0.17111640604278844,9.852092805943487,-0.0005619515790325529,0.007069116402720923,0.0031583567111280976
5.610,0.04970217155584301,-0.22164299327216153,9.728984040066118,-0.008938638554068965,0.0018569520879295517,0.0062409601641858735
5.620,0.06114845379734194,-0.12924031301958488,9.821133414009836,-0.007605752229363517,0.00012117549466949969,-0.008436820661935521
5.630,-0.04686826910633396,0.04334795587377785,9.808546167147266,0.010254216002232927,0.022551200277518998,0.012536192764552017
5.640,-0.23445526562110897,-0.10657993602647807,9.912838752532522,0.002151591832661051,-0.007437391024577631,-0.01017179274416076
5.650,0.050453713770423306,0.08186690232122282,9.820816808284802,0.004175157710793804,0.010539761464867386,-0.019213094811578808
5.660,-0.1666619730433263,0.012919305680495242,9.902290796865172,-0.00960753485420469,-0.004258004033875753,-0.00639713735329483
5.670,-0.04789252401903534,-0.010292618072271276,9.937040395250591,-0.004041945971851262,0.010770469696547394,-0.003455382818943642
5.680,-0.08008780611191547,-0.06713017781215595,9.789766451710214,-0.0029683372257999965,-0.007554177214120758,0.007211561384068117
5.690,-0.1606580664634924,0.04528772248925645,9.840956399331864,0.004951382992503733,0.004505291056611651,0.009697770893696524
5.700,0.0448986365982029,-0.03420673994775804,9.911690207234972,-0.011781057713543432,0.013778037577492151,-0.013090884579064495
5.710,-0.041245745457173556,-0.23988567703074787,9.754286360140668,0.017211299430739856,0.009483688411533861,-0.001038941013517506
5.720,0.09068202557735669,-0.13166201557465093,9.828342186705306,0.0007291765187425574,-0.002841041197601173,-0.0035120912182848734
5.730,0.12364557693210809,0.07260244893134622,9.712016385188797,0.007481999657911271,0.004405394506417339,-0.012950915749673355
5.740,0.17533704942692843,-0.09980053200020275,9.788824277145284,0.005618368227429885,0.011716207340751406,0.006658959744772888
5.750,-0.025351995582154285,-0.04558804360679619,9.808094939664285,-0.008263643831850425,-0.003657417609281656,-0.0016569912735398746
5.760,0.07866253997428581,0.008811702386539581,9.699438803778499,0.006672990407087035,0.001186114062669815,0.014837574064181297
5.770,-0.18745378922498027,-0.006949835825787425,9.868412917956897,-0.017734950018038716,-0.011309534610974946,-0.002365919755954186
5.780,-0.01693490788714464,0.13639397628623348,9.883116976943432,0.00919229145286565,0.0011492301791658879,-0.01803828124149699
5.790,-0.1385443868475957,-0.12826330330905594,9.811194967552778,0.010611446697026308,0.008693688227168359,0.00817568044494691
5.800,0.025586020571033832,0.029719565846521485,9.73905563463458,-0.0030487854417396527,0.0077142270776931745,0.001967777216049248
5.810,0.0557409845848879,0.16342291398032854,9.84012087560843,0.016789388813707826,-0.01761244829317785,0.00862194136729667
5.820,0.041240257760985305,0.07777042325754194,9.791537855157278,0.012520638140401765,0.0011590352205690815,-0.0014934036500975087
5.830,-0.07795675035389535,0.11223244067755066,9.785461995607038,0.013293944144406353,-0.009257412037095975,0.004967759388475739
5.840,-0.012459203402178293,0.11538109546632161,9.748915050242237,0.00473111607805216,-0.013706173923007626,0.010030720654987852
5.850,0.11083674659664629,0.11635793733409557,10.045754216698674,0.00790708864788658,0.010372108034123584,-0.0072098189564326325
5.860,-0.06324974929357362,0.0495798690214489,9.798435290978974,-0.030080473426476583,-0.001897846524883102,0.004390874372835212
5.870,-0.037371452423938765,-0.021816209233785945,9.932047987903674,0.0005317984439960543,0.0026130287647015927,-0.003069969841682875
5.880,0.1455415181017766,0.12595384987713706,9.733316669160045,0.01504517267849108,-0.00251697881159931,0.002851274373315927
5.890,0.05714244482474043,-0.00022134659945996106,9.753246363492217,0.006889463318643386,0.0052661953401735104,-0.0053858655940345855
5.900,-0.021022026215409138,-0.08875989459097326,9.835496609088041,-0.017369688061933567,-0.014182292031896068,-0.0002025665866808274
5.910,-0.07059323512273802,0.0006501379040714286,9.79474665197075,-0.0005142806214108938,0.0005152394532521357,-0.002351926211409701
5.920,0.07439911911451368,-0.16216628991998155,9.765957934752482,0.0069942879167220855,0.0052306818953263105,-0.017364261874925818
5.930,-0.03938392552242727,0.08031351036395909,9.830528905834036,-0.011085303988311685,0.0007375276048005714,-0.026209346141359932
5.940,-0.019823875834770036,-0.03186839581416139,9.683770804918264,-0.02047823441739376,-0.01565435194707578,0.0008888825055104414
5.950,-0.004152851044061152,0.09910263314318996,9.80952777403429,0.0008383635462939808,0.008201452990491251,-0.008654212743233166
5.960,0.01421195002493998,-0.1147739152649846,9.650421783898027,-0.013116664019327278,-0.0013381770698370989,-0.001763919046373402
5.970,-0.013825795237034068,-0.012838282232673956,9.856141484476424,-0.0034865314900484074,-0.003263850765315801,0.002928844707543987
5.980,0.009606052786397652,0.07803835461504799,9.851422814927558,-0.0008587125047015805,-0.0055207125425244105,0.02234548947634567
5.990,-0.02551979602606956,-0.01818565490711674,9.870505468703975,0.00639165454777111,0.009573078444956222,-0.006375089957200691
6.000,-0.07811075701231011,0.08917195740881834,9.878012370345424,-0.022137377983930145,-0.0030800810184512216,0.00020763533794110342
6.010,0.03690419650727366,-0.01980637859822608,9.658288994378758,-0.003971139243232039,-0.002539409492119077,0.017737863725646476
6.020,0.021149617543371618,0.10042376592731408,9.82372439374549,0.02437685356768869,-0.007374204603383222,0.007386001023434001
6.030,-0.026029150430646266,0.020959025520278902,9.7236883359608,-0.004387730876693211,0.005920923421173478,0.005016284428397716
6.040,-0.047721366280936046,0.16810151263634307,9.953207466585697,-0.005154082741185811,-0.011710305607641913,0.0005226777525320765
6.050,0.10323671196446185,0.02981532480109679,9.63273647901862,-0.010112504436289051,0.004799783558382278,-0.00964758554978129
6.060,-0.05615425536633344,-0.20887055674689822,9.725272269829974,-0.003360690792561457,0.00887326418930057,-0.015654382735109797
6.070,-0.14942127630658394,-0.09633798925486732,10.08376697307012,-0.004536220842573314,-0.022848333973360193,-0.010329100341674504
6.080,-0.09052047722004763,-0.03253183849313467,9.813396935196756,-0.00047084386262789097,0.0012154933477593747,0.009367308636153874
6.090,0.0619585483931207,-0.05816489287159202,9.774159733468286,-0.008031417816113204,-0.0015299259580177358,-0.0038453336220586453
6.100,0.2120321890218219,-0.03284646628149014,9.832955863967976,0.0019237073879578538,0.004480933943900537,0.007431627373559111
6.110,0.01986244093728458,0.05268995641325894,9.808079378241537,-0.0031485178037311302,0.0017784191030606551,0.014205538197760229
6.120,-0.0881183214347154,0.12250482467681104,9.733989584343442,-0.006917196437135615,-0.0019815847222256155,0.004415621157339265
6.130,-0.10885275495446223,-0.12706142831910303,9.760785260715409,-0.0031911087473710867,-0.007588148983328245,-0.010187259303696397
6.140,-0.0240934706346947,0.01983010514882064,9.95693948355423,-0.004183538780321145,-0.009435643803237172,-4.195599832788354e-05
6.150,-0.21585763369038619,-0.0011041889974377106,9.899288474768522,0.00830428645439653,0.0032575913774424993,0.0020697761687575294
6.160,0.047347692994485435,0.09530093740239476,9.795878798360244,0.0010252994022837854,-0.008915955430626068,-0.006675718649691955
6.170,0.18475162663847688,-0.15220796583873852,9.78323712144788,0.00558465260390743,-0.0058992646259505045,-0.005929779380796002
6.180,0.1228504122936385,0.040657330627218255,9.932115880108665,-0.007087498791422257,-0.02125842314872271,0.003709906839990528
6.190,0.0571364319906639,0.16964720934124858,9.814643950322703,-0.010481399631478806,0.006439515647033409,-0.016065777647427323
6.200,0.008219150354372227,-0.07448186929667315,9.868955559244425,0.011436931271805352,-0.007468149967329159,0.004055552473677543
6.210,0.10915319075529017,-0.1984533128512976,9.787812951355939,0.0022077547535881725,-0.013572933089906945,0.0037642901912057665
6.220,0.328390368280465,-0.07519416370146279,9.746051993248802,-0.011480237851909969,0.01304833030673121,0.0005708053395167041
6.230,0.01639160698101234,0.007716722445526476,9.960912393141886,-0.005837071914226619,0.025271314383006428,-0.00701081470169983
6.240,-0.10011339052347089,0.19443134112714275,9.972950417830502,0.009372558084964646,0.0063845574511586945,0.006383756273309516
6.250,0.054136505147326236,0.1345337259590661,9.869295698090658,0.010355086355872536,0.012350701195864247,-0.009224100041599076
6.260,0.0044038065119790075,-0.053061458059042534,9.74401726745596,-0.003296331712407228,-0.02541760245112544,0.0035216144801299793
6.270,-0.11228719633873739,0.07936130504020097,9.767364060218226,0.011435837828351501,-0.007417183781997919,-0.019211326130255214
6.280,-0.03292670571297929,-0.08833420655589651,9.688939793278665,0.010797673694471622,0.013116399011874391,0.021943130376950195
6.290,-0.07525050188254814,0.016751488064549902,9.863863800278798,0.020813304545788426,0.012324956565250383,0.005829723749004808
6.300,0.00036396139645915283,0.06997884924418699,9.707537292672065,-0.010977171849453612,0.005519211409535224,0.006991655516652435
6.310,-0.08972152250433632,-0.0920952260327238,9.812100598102237,-0.004435128180507514,0.009716594726625838,0.0001048850409095141
6.320,0.027966939399771892,0.06202092758160881,9.680190467846174,0.007147354866081023,0.0038279675987144225,0.014055853657071305
6.330,-0.007849470519453665,-0.013892333108651773,9.88724757671485,0.012019130490771301,-0.0011800492187295428,-0.000219506912350057
6.340,0.0888348815202144,0.05067479973443695,9.776486204964275,-0.009614457242378735,0.0050521031540323455,-0.0011681786437375524
6.350,0.04780646540963965,0.05674073398215288,9.769478736606274,-0.0007304118101121229,-0.009394864073548148,0.008144985792302986
6.360,-0.007283675915095581,-0.12386819043466309,9.868975954658099,-0.017632485221888407,-0.002696307430057918,0.006568625010290728
6.370,0.09879064181850805,0.09837982060785161,9.80802754203968,0.028841835793232764,0.020762599352507915,0.014312934087620839
6.380,0.1111830836882968,-0.0688015269403237,9.644619699474033,0.002557904878342874,0.020464603002054518,-0.01228379270814156
6.390,0.0009429932921519139,-0.12430325300539716,10.021949033106488,-0.00313916926501012,0.000277880155693291,0.001352191954276267
6.400,0.07261504673597648,0.008058096023254663,9.8316207311415,-0.0006750342986645083,0.004350858334052176,-0.0034980325439115845
6.410,-0.07236022254183509,0.10857787751531163,9.834847046411776,0.009619688003431602,-0.017950360252808585,0.014404740309309603
6.420,0.04422166130627056,-0.030455121289331106,9.803647871548119,-0.003382843008077574,0.021403896043277176,0.032465818239240225
6.430,0.03368661934842057,-0.10986528275298613,9.709425943829956,-0.018324541220830305,-0.0070988891554844905,0.0027852304062341545
6.440,-0.10289224340495864,-0.0053292543375392035,9.751534197010818,0.019397452581764278,-0.0011211629300987719,-0.012302398935709523
6.450,0.03816794276005164,-0.09846203700668471,9.953313249689046,0.013371658032115355,0.016447949774261637,0.007492635590596232
6.460,-0.030970740894939328,0.005041230259184805,9.836662907801449,-0.00410403026508751,0.006909454399991439,-0.02858494352772702
6.470,-0.01078596855260966,0.02050900357378267,9.800760830018321,0.005598341198252365,0.00645069242901574,0.01386321427088229
6.480,0.32451936140208537,0.2730764547994237,9.711841553156564,-0.012902225010236006,-0.00026013768201608187,0.002698529945192753
6.490,0.29011050455844173,0.2067826726527665,9.94527719114612,-0.010175245477194634,-0.006572495159772715,0.0017914558339251526
6.500,-0.00028095207848189617,0.012036200187380816,9.802174329514248,-0.0026531371332927556,0.008359519233205902,-0.0021849698731645777
6.510,0.012314652708575003,0.14505041327396553,9.730732226066257,0.02741420335530001,-0.0015029821392067103,0.019369640112998215
6.520,-0.12443423561420322,0.09098196860444246,9.754282751965668,0.007055639640773103,-0.006971741025728171,-0.010416565173987022
6.530,-0.022604319024903258,0.04788637398951994,9.788594028766452,-0.011672993600086388,0.01810059157291335,-0.006289868330345888
6.540,-0.04482520051591465,9.016637542001629e-05,10.07535069750136,-0.0028832704936795524,0.005103916312099739,-0.004567364012319674
6.550,0.10494255286861905,0.059029904632815204,9.694204179918016,0.013297897225124589,0.003852746813981408,-0.0003330399545290669
6.560,-0.06114998793903823,-0.020855507505243214,9.822856480546648,0.015680204677023236,0.00991645835587599,0.02134047510851337
6.570,-0.029106202481479482,-0.10410883372443608,9.658170160418283,7.193091391121301e-05,-0.0009557020741108341,0.023741637679237863
6.580,0.0022990437614665666,-0.1703051650145484,9.846488620625859,-0.006410515547956419,-0.002703306756400193,-0.006679197904489319
6.590,0.061691411811694685,0.01216275315461901,9.767020453120477,0.015355516143084865,0.005450408156898523,-0.011638305242336814
6.600,0.10398569671156835,0.15843320464147792,9.837835933535413,0.012037585589561013,0.004799504954663437,-0.012232851939194895
6.610,-0.0002442326287298978,0.016682042324375604,9.853213242027637,-0.003952432636416298,0.002333443492897535,-0.003934469170390365
6.620,0.2509274569500838,0.038614484740299326,9.797628518031486,-0.007288236257841851,-0.010168102007325987,-0.007850994359053707
6.630,0.23334881301509008,0.032597299528975186,9.768663299240558,0.013426998146650151,0.0010822223860215922,-0.017138053539887427
6.640,0.05160735492473915,0.07353083717441508,9.767366190035283,-0.0008038528251992931,-0.006958960995658058,-0.0031520072320730856
6.650,-0.03496480130208866,0.05761194301081405,9.640827759527273,-0.023833256542928713,0.005865541002770042,-0.005990049074453895
6.660,0.006126087330421757,-0.025411049355398216,9.771974272655255,0.000798580753377326,0.015551154478119474,0.008960383626873987
6.670,-0.23467897911962107,0.09744358065838803,9.742600922311532,0.003780977467310573,-0.008333920951664244,-0.010178092196100552
6.680,-0.07872546392447263,-0.005814582641534845,9.732190238220168,0.0017622245799916658,0.003814726897952607,-0.004435539435956152
6.690,0.08123283671658105,-0.0018597406124268188,9.86606269477812,0.002241634835442212,-0.007417646189941472,-0.0012571148025739337
6.700,-0.011817617647989996,-0.03956466134053938,9.65140287356614,-0.004255759603441724,0.0026040621730867904,0.006328548560343197
6.710,-0.019721932399044,-0.05583166472054368,9.837684135847724,0.0026452286000996374,0.004348787844632829,0.0017952343586968825
6.720,-0.042531689225670466,-0.04237559957519976,9.78511604560677,-0.007305854503014633,-0.002455377110754727,-0.003611204130748519
6.730,0.11592242577592207,-0.19996536334551948,9.886633384442183,-0.000992948555737865,-0.011800096487832899,-0.00262735837773528
6.740,-0.11476098816866323,-0.023692098177555465,9.66304457621678,0.009945502949400295,-0.00018254587534478523,0.0058655840507636035
6.750,-0.09156284641345297,-0.01798068484476696,9.903904372366368,0.00010962349932649433,0.02810077128924001,0.0013888085261935335
6.760,0.02207776531872466,0.12099535117757157,9.759745205180876,0.004336889820466523,0.009640042624181827,-0.004577185736950872
6.770,0.03528145536571298,-0.055262674718084395,9.794460835354032,0.008725341127704858,0.010379601565374597,0.009676759251777642
6.780,0.11593701474679191,0.04279083291853339,9.876072714191304,-0.007265958796021452,-0.011518109904440878,0.006568694127280069
6.790,-0.10036651250583868,-0.010769940462610254,9.923056633493033,0.006814881733734044,0.011153212998271678,0.010470639676919339
6.800,-0.039965976438709305,-0.032369918029834514,9.785555221869288,0.012787010034599094,0.008711106101393237,-0.0006527582803845295
6.810,-0.08152268722502004,0.10034396560721769,9.775558324333339,0.017754313049153727,0.004161682934535722,0.015614568112930296
6.820,0.07579635206585288,-0.10958077725320998,9.741567727506292,0.02301763209689553,0.004059515718192097,0.017198891210486157
6.830,-0.04097617695294695,0.021773138337656824,9.846625848675306,0.008214959225465657,-0.003213701799696624,0.011006636999776154
6.840,0.017575361302895696,-0.034747085230585464,9.645305653183618,-0.008039595681556861,-0.006325575715845381,0.0009404168567915221
6.850,-0.045438274948031175,0.0647804586024036,9.847807343516566,-0.00997971802140606,0.007023935157758773,-0.0070463162737731755
6.860,-0.06157370719705321,0.05854604591633507,9.881123296209362,0.014740480800386169,-0.0037463059280790625,0.019499833821476915
6.870,0.14692294071305295,-0.009643148507143914,9.649176689332144,0.0019429424267441554,0.008221211245499103,-0.0032508409943602275
6.880,-0.03117960466225972,-0.08444162782762993,9.865838122583272,-0.014018513142331468,0.01395061690133332,0.0057492499836743986
6.890,0.008819245975042245,-0.0826993021870075,9.8724247494117,-0.005783264830752372,0.008110839596100235,-0.0008031009527383797
6.900,-0.1400517597962143,0.05431019119581888,9.752630260257149,-0.02695348507947929,-0.008943991685803036,0.010475168316083716
6.910,-0.02174577482616344,0.006552507618456424,9.881013323455146,-0.0020274765422061873,0.024455594926617676,0.014848739239980936
6.920,0.1514448812806235,-0.035364486680164155,9.795661827835906,-0.007549933153147133,-0.0022116489201882282,-0.024252918663702463
6.930,0.04788874415845337,-0.1721087181335191,9.918323265151978,-0.007120923102567777,-0.01052442811345015,-0.016075911529027896
6.940,-0.001047133903734831,-0.0015879427295294145,9.854432498988352,0.001417757139621781,0.001477773003969703,0.009794643210728595
6.950,-0.025375699524554603,-0.01226332112608687,9.640432737140452,-0.010846858831710746,0.011724232956608465,0.002772237182817192
6.960,-0.17652856603351075,-0.09020715449011774,9.78040883041068,0.015402040363764975,-0.02337588250964751,0.01359597237786591
6.970,0.044974483669252295,-0.2336596870442832,9.742645374776234,-0.0009271987665684624,-0.010175775404973074,0.0029536623467893925
6.980,-0.013749440410865172,-0.07404917746199312,9.66268687217422,0.016625890415164095,-0.003480198752802685,0.012707680010566894
6.990,0.13812120062939423,-0.05168824320396831,9.798435850817919,0.0030407873737851488,0.001816644297948741,-0.0016167782600346272
7.000,0.06919545071481406,-0.06190455746237579,9.883812914119028,0.00973241083813299,-0.005913507312181721,0.01621555049699913
7.010,0.006774191423716049,-0.0603479373356936,9.669373684403189,0.0031700157162840663,0.016810842381166865,-0.0023912424036992923
7.020,0.054862327721827975,0.11379142922513655,9.75733510097679,-0.013164457223187794,0.0074469285817460405,0.01147195513341964
7.030,-0.13434856808914217,0.028977165400044205,9.783300723373245,0.006399398465289273,0.0018473948483167322,0.001990776283862263
7.040,0.005775396590960821,-0.0247523072041484,9.874307431486905,-0.006854327450696063,-0.004000345421711236,-0.012512851089895511
7.050,0.20110770232164274,0.27802318799340353,9.751728719283904,-0.014238723254027162,0.005744336962655088,-0.015578635348425967
7.060,-0.02555255171583308,-0.16724927880013804,9.945639186472352,0.015507850786415112,-0.013763808113202157,0.005464066574952967
7.070,0.1341818772400099,-0.051916570616608385,9.781314730155497,0.001781361681491855,-0.016567645009470673,-0.004369503222498488
7.080,0.04989809961349747,0.01860529789256784,9.83713496160476,0.015123232024708062,-0.011635747539445924,-0.0008671229611833174
7.090,0.08342882383038357,-0.03635778684259468,9.505967870546513,-0.01024239047676437,0.012459297713421875,0.0022705228380569694
7.100,-0.18059369635016065,-0.06478677746645714,9.66428358218994,-0.006627437216204619,-0.006844346525016518,-0.00937950149462702
7.110,0.031097897938404947,0.05685297648554945,9.92432241791371,-0.004907458455876687,-9.285643640020255e-05,0.0029072356941855226
7.120,-0.15095830881015812,0.14288372256147325,9.815271812613188,-0.01093335902851982,0.003738335240170504,0.004586517476600132
7.130,0.16563576994445148,-0.123786216671524,10.040339971833486,-0.014395166370716141,-0.0038046461326380026,0.014453424220256842
7.140,0.09712812103521848,-0.05896817312753903,9.707608360752465,0.00458698022670856,-0.009808436511117983,-0.0020252723798882054
7.150,0.07240144146349245,0.030370064181465203,9.768985572962695,0.0067822819526118594,-0.007363174763433641,-0.011824879638976802
7.160,-0.061145664577017124,0.021964926495917095,9.616540805391843,0.001014896705422067,-0.0010744839259212214,0.006636578148500933
7.170,-0.21201659135536152,0.07135418615130693,9.837199439281656,-0.0022590232904418617,-0.02343877436538122,-0.012247849042221648
7.180,0.08502387070398015,-0.06626846069543861,9.707478571481872,-0.001678860887196805,-0.011285173641871468,-0.004954431632223722
7.190,-0.08286143212465917,0.03617335724596261,9.814531919198942,-0.007179770127100083,-0.012020357007279188,0.003762521703274417
7.200,-0.04357652405630347,-0.17041970215282562,9.91644731030309,-0.0007011483517043444,-0.013096798480191341,-0.009095167666586692
7.210,-0.017702219203398234,-0.026968064502473132,9.74016400626418,0.02669279095737748,0.005816706009389708,0.00549764808465656
7.220,0.053807521391550345,0.05515350435490332,9.771305398567087,-0.014628698462539032,0.0007832913439915465,-0.005881412286471498
7.230,-0.011350892220939782,-0.04820872511777175,9.877706895503792,0.006247263154887344,-0.02249841802724304,-0.009877159146500593
7.240,-0.03994993680044927,-0.023370491834485724,9.75699337744778,0.004643403775095707,-0.018989929715984306,-0.013402280727100244
7.250,-0.09872228776190828,0.0008395446225314823,9.77909680862834,0.008098724639226394,-0.016317793392766847,0.011688644577119411
7.260,0.1096078252732557,0.01685290990111665,9.992060561230463,0.006639097559361341,-0.014654281348690536,0.008001218061491247
7.270,-0.00725654976772766,2.2581187983335227e-05,9.83926844435628,-0.013638228329741073,0.018263641303166604,-0.0008193381413286425
7.280,0.08398357758752611,-0.1172833203946122,9.550894526200523,-0.0006914668134895915,-0.013657483201573973,-0.0007711256058558786
7.290,0.050113796264000345,-0.19207133814490293,9.815331538128461,-0.005562463606997255,0.0028183585213975176,0.0024135420611210447
7.300,0.062215657450549494,-0.12429633181713584,9.8313519495816,-0.000941487810842901,0.0008306074760446517,0.0030249814190909763
7.310,0.07272345997662549,-0.11192676363271126,9.702024046355945,-0.00604418783301046,-0.0049012093494469255,-0.0027730333339124518
7.320,0.018597697129338293,-0.1697968423597207,9.837792657568105,-0.005426701046328708,0.004351729097170333,0.012762343339675953
7.330,0.07273140801694035,-0.11427950978081061,9.709515625845475,0.003115455242500759,0.001297414449441815,-0.012547639231879048
7.340,-0.05419388730267989,-0.06632128474408927,9.864045687620692,-0.007865453252235161,-0.010025436281836523,0.007705766983558855
7.350,0.03322378624779831,0.05361925397894199,9.720230231854641,0.004560196142014504,-0.00475172757874167,-0.0087951771184224
7.360,0.11444994916866875,0.11783406543210427,9.69466850734338,0.021816840855467087,-0.01060779825519277,-0.024710920647927816
7.370,0.027441462865807533,0.012706206680990088,9.763522457859567,0.00489825086282013,-0.009216572570865268,-0.018737291430825875
7.380,-0.2008514902694418,0.30301757816029207,9.819906112445597,0.009008161291701735,-0.000895875910071655,0.0029193186668683225
7.390,0.044638679254243946,-0.07761662216902682,9.922431896139665,-0.0037488193231041203,0.009901475250650146,-0.0022656331595309015
7.400,0.025082082790064186,0.16568851868227807,9.931596178054061,0.009679203604045679,0.015347832220272473,0.011809978765374858
7.410,0.044818724354960364,-0.028887290036187098,9.728745845666024,-0.004117538090182723,0.0005935447104678998,-0.00015153660190782983
7.420,0.06990909224811073,-0.00484644216254012,9.83891717383182,0.01684402087981231,-0.0054997574995874965,0.005166796891706211
7.430,-0.008741717700481388,0.14780184869155458,9.7612425201369,-0.0034580389866325683,-0.009605522041509615,0.0015495465489058602
7.440,0.09790356480097885,0.022092020766440672,9.746263549409013,-0.005800151526633366,0.0020805751020413652,-0.0016645085343567135
7.450,0.008084736375234066,0.0848252096946692,9.592169188149272,-0.0048409666626613055,-0.007636495846040703,-0.004636143388743068
7.460,0.2004101444038784,0.057034099312316955,9.76775460839996,-0.008451236249226583,0.0006407383669291486,0.007029334649947519
7.470,-0.03493506364448889,-0.0784371244921155,9.723463733572768,-0.019023958346893372,0.010634683220486232,0.0117714293274441
7.480,-0.21090615227334306,0.03302789750370225,9.812148124825613,0.0033838830666548716,0.014663575723833672,0.010391930692972309
7.490,0.04189312925691393,0.060213913007676534,9.624565147012856,0.014815739057916595,-0.006682371024491095,0.001815275122686299
7.500,-0.02358963963376216,0.003333129958404525,9.837550543591632,0.002734213887273313,0.018732632428755957,0.006537756934086565
7.510,-0.14169207634955147,0.15316092981188392,9.782204387192731,0.001894293992762344,0.0006981355410974175,-0.013180313179940133
7.520,0.10169983982319762,-0.05441326678068192,9.871613342176355,0.002007771622042972,0.012137889579080314,-0.027017758582910972
7.530,0.04399187965553823,-0.03939434579879274,9.848769674420573,0.005352947146135866,-0.00815448092245942,-0.01492689758442671
7.540,0.11203586395599047,-0.018881863564848236,9.831467024551493,-0.0018260110714552796,0.0014761593878619861,0.013919886279689072
7.550,-0.03752410223682695,0.10304272882988452,9.787814430409277,0.00656840559534605,-0.007805965359256859,0.008899654941843204
7.560,-0.025934168469303076,-0.15612905945029934,9.782712014570015,0.002237471761186349,-0.015319649123341179,0.020049461860214765
7.570,0.13032520359166824,0.15163231175701677,9.72775011605762,-0.015048341285079871,0.01759970459907942,0.01970907547182443
7.580,-0.16890602568669713,0.1302353573591878,9.635587899117501,-0.010499336707180078,0.004082257216306095,-0.005507240956357185
7.590,0.14011564020200393,0.03931945440173366,9.960160756283623,0.004403042735284356,0.005238681886388199,-0.013584892722475823
7.600,0.03984165996671314,-0.16712062748517886,9.802506107068128,-0.013881046745223698,-0.012193918249711657,0.0010015296655195747
7.610,0.19752512181338847,-0.08422301677152466,9.694946350653451,0.004191805702651288,0.0013203259302631322,-0.015782091888839375
7.620,0.012979110401605898,0.10526086172088973,9.820516077733359,0.009145134878368568,-0.00890204834926765,0.024335571807790193
7.630,-0.04358409624925781,-0.05890421146056338,9.806255615173276,-0.011403467318394337,0.02090444098454208,0.01844383864596542
7.640,0.007101711711225679,-0.14346556575872865,9.75789080612929,-0.015777912935617307,0.013401603192458944,0.012930850067738699
7.650,-0.06058841476332131,0.03731358712531096,9.947784381946676,-0.0016264582076262345,0.0069447425248279765,0.0071326346939548785
7.660,-0.11579014489853597,0.0700969800031707,9.8640229292794,-0.009549624358893283,0.009429918452748508,-0.0034846068738971425
7.670,-0.10141435834797029,0.13235989811758095,9.925757801078705,0.0031434857724569575,-0.003378451368045439,0.008139305103620334
7.680,0.0028092877722980265,0.15668801670327182,9.717801322464934,0.008156123300155358,0.007498304505889567,0.007052543535157191
7.690,0.030943746402494882,-0.17362342933452035,9.779201775152695,-0.0035652328746272584,0.015493343580917121,-0.0035005948427652123
7.700,-0.07444318799921375,-0.010816398046748884,9.893508014045358,0.012254459530469913,-0.0066051072402916345,-0.014851809726369593
7.710,0.12633571530301188,-0.08373007783324085,9.752860857361467,0.010227307920660312,0.020637990844905557,0.007765993871773328
7.720,-0.06276857388443381,0.03837420303229875,9.645043636010003,-0.001975848189505832,0.010602816454870495,-0.006286599696358679
7.730,-0.09801102526466769,0.025276101455422972,9.762138233380531,0.0014332524971915925,0.005517711998666048,-0.01148240088924539
7.740,0.026589805788870338,-0.038997156273405664,9.830896961042573,-0.012564682038552703,-0.003436012830621366,0.0043012859659190585
7.750,-0.04938228477734566,0.028993484545994225,9.845584747073536,-0.009258592419665297,-0.013511600660434038,-0.010668740292036478
7.760,-0.005496541714121727,0.007497717012273578,9.828915446241266,0.012498959970921337,0.02023209573650354,-0.010737535705439174
7.770,-0.0695261578976301,-0.04646060122003692,9.808544121369104,0.001009019500328892,0.0034333987899565184,-0.00956244726497895
7.780,0.26422821568821697,-0.01642394452501411,9.922413324576196,-0.001452373468204116,0.0085165388729735,-0.013505600938553417
7.790,0.14025358032659138,-0.07337656558784063,9.745940913121236,0.0010861813627458389,0.0023891905426068967,0.007272194634912077
7.800,0.14603064791682657,-0.000305503174000494,9.843039364048094,-0.0011175533553082516,-0.007848355543885147,-0.013684943618445721
7.810,-0.037840402979191175,-0.02172843079846433,9.67430061654216,0.004098614059934428,-0.010354121691136224,0.0014444288260648337
7.820,-0.1067156138825923,0.12888706756566426,9.938916321125218,-0.005574446009114588,0.0029140306891815514,-0.011814353591796639
7.830,-0.15576595277692631,-0.06860807481547707,9.923885016341302,-0.012337886548536046,0.004949793667447658,0.0044781532255968185
7.840,0.02887379337259137,-0.01664421371418776,9.79886644725322,-0.0007025401834229688,0.003871712665612015,0.013142095531887686
7.850,0.012539506516005744,-0.0043221092348529775,9.782636651663687,0.0023029079091472816,0.0033371191804626456,0.012684220370329256
7.860,-0.07674204932074269,-0.10543090561086915,9.903030282906297,-0.0010393765580806902,0.0020997360582967256,6.642100427910704e-05
7.870,-0.2385840723787879,-0.08830222995021775,9.867844096465683,0.015227062907418836,-0.009078744993893195,-0.012742033720084067
7.880,0.01421200452767376,0.0033014615239629827,9.83214710225134,0.0059062082691542775,-0.015779434412567593,-0.00388268386187584
7.890,0.12304308426622478,0.01651989555414001,9.879301704115404,0.0014189131868363777,-0.015513303549848274,0.009638241845010918
7.900,-0.06957910618978146,0.07262736577629125,9.884498038491166,-0.003998471182453503,0.0025061925317235814,-0.0008337303143758564
7.910,-0.10560900488577873,0.06699361786198409,9.872529569382923,-0.0016465887530619967,-0.021638184630039664,0.011965044964141728
7.920,-0.1478528145437731,0.01436061701093956,9.743882623149068,-0.00646403760571197,-0.0047169973387293776,0.00694876928436485
7.930,-0.0671775616264699,-0.00702513920813537,9.783212878340048,-0.003769447741477866,-0.003665187723194466,0.0005082804647845878
7.940,0.05590782970769075,0.046570220914837646,9.787925595606955,-0.007367414409076285,-0.017508615444651616,-0.003703353821168543
7.950,-0.11350952618189586,-0.051959590746326105,9.896154250159519,0.010976941181439983,-0.012387321459050362,-0.0033394189248100747
7.960,0.18375089887093812,0.07717950760663249,9.724149070301424,-0.014580601462543726,-0.012743547658658537,-0.016505877250749056
7.970,-0.2915657251836378,0.11801695620504785,9.955460155303147,-0.008666301158052751,-0.0012246485529999883,0.0029851753217032015
7.980,-0.09296185651830795,-0.15483697943532723,9.930185252134274,-0.001096101411439416,0.005921524138884888,0.019035544182322787
7.990,0.1310484807363466,0.02186986780624397,9.738764546635784,0.01918149496350304,-0.016991650356556233,0.011355982929722397
8.000,-0.12477603943434057,-0.0034962792867653915,9.630967161790482,-0.0033002831625892582,-0.002155212595104209,0.00023187127991891124
8.010,-0.04701997846564558,0.15023164746403422,9.603323993743661,0.003958103309645785,-0.0021202626375328615,-0.013031194612385184
8.020,-0.21613850163369952,-0.09490828696092046,9.57748180529327,0.010795737362372519,0.0030440165298979706,-0.011105817640942699
8.030,-0.00021358990707740443,-0.027331414116576993,9.83846585194139,0.002796334950788188,-0.0017050730778569582,0.009911114201046676
8.040,-0.01746280771021202,0.1207193431309866,9.839505438614893,-0.016034254458317347,0.01625105354106347,-0.0003948813009420364
8.050,0.11995576777522798,-0.07324123782407942,9.68071618178509,-0.0018424285650954176,0.001395829345192233,0.0055407145941472795
8.060,0.0385168831747491,0.08196694291875711,9.756743627316038,-0.004753027433207935,0.007945879404757286,0.0036781251680961485
8.070,0.19494901790032582,0.2069079259440792,9.898564482659403,0.023547431274681216,0.014310427273319111,0.02033180157631639
8.080,0.027960243348746156,0.09035427046083092,9.838907289946876,0.0010993303017074597,-0.007969743610593202,0.0039748492403190025
8.090,-0.1619485133420514,0.06512486387256611,9.793679879408389,0.006797965874629632,-0.025651989633894267,-0.013997783134338778
8.100,0.08101334627527967,0.045581251911367957,9.82427862793041,0.004886553393039434,-0.004055575623186287,-0.0013187372551279927
8.110,0.010111655918536322,0.10764614747597596,9.799404452871554,0.010767733539254839,-0.002289186949788077,-0.009666442814049932
8.120,-0.002017719887109851,0.01367023363003983,9.734513924435737,-0.015262164647428196,-0.010791363732834238,-0.0023222169857554536
8.130,-0.059860114267625913,-0.019042632484896852,9.863440718522563,0.0010312167178682158,-0.004016604804905867,-0.0059053615200412015
8.140,0.03809086175527928,0.051995214356973796,9.868662288324728,-0.0025538162090282313,0.0025885318930446684,0.009143254743341265
8.150,-0.05719623744589894,-0.16084248728937972,9.830362882879843,-0.00981023927949379,-0.012326311898866595,-0.013641170961470335
8.160,0.04860052444385044,0.08144268082773382,9.696575859633908,-0.00014181462797215654,-0.008673843103283355,0.0009242767882929438
8.170,-0.014287212683543653,0.11303250642259904,9.674039918628656,0.007913493020856399,0.002863885648634117,0.000588585524481086
8.180,0.011276205733757259,0.08167773820292801,9.921443567645921,-0.011628428279167267,0.003359446927034818,-0.0010584084512648998
8.190,-0.012227579388775896,-0.0430436860272225,9.845395825922045,0.020391051306694746,0.009652056782176028,-0.007717042045145805
8.200,0.09570473108461158,-0.00024699347509146843,9.867407009061251,0.0028397679325975005,0.0011675049060659284,-0.015882180108291632
8.210,-0.020044140865012276,-0.14180402093196964,9.68326789640452,-0.008048885554137913,0.0011919392211382919,-0.01960006532071526
8.220,0.0062191288696932644,0.056047703014066724,9.69087565640694,0.016970676744477147,-0.01128199942996058,0.0008811954114262354
8.230,-0.20714548953968884,-0.02651715401919664,9.812710209502981,0.00642118558064421,-0.0020700095858289984,0.006085601395256615
8.240,-0.11902113947014631,-0.05323468232474931,9.770223123083365,0.014722169167037565,-0.0067577303116928816,-0.00571770014973041
8.250,-0.1321282526990334,0.025310926951908053,9.798915275484033,-0.0052724974772713,-0.0081972132562848,-0.006025458310001062
8.260,-0.12830184197239267,0.010324495759171624,9.758952907817918,-0.013902506963371728,0.01273939872702155,-0.0012163498037039578
8.270,-0.07819935944105408,0.04541740701283358,9.807785807265217,0.0035041925311271606,-0.0009853808380066633,0.006878849553527267
8.280,0.0007919847487556612,-0.048448883039381926,9.720964057798431,-0.006497575845837459,0.005082384956875776,-0.02315984528139638
8.290,0.021962046095802164,0.12831465606429546,9.879189152187251,-0.0005389644481264119,-0.005763040165365349,0.00989893574139478
8.300,-0.03454247754543264,-0.09234502155646447,9.682485236468576,-0.004898248001919182,0.008403124936580195,0.00807090492561129
8.310,0.00011910858815409708,-0.04611048326352803,9.787381567505117,-0.00203889910753027,-0.004896987690785375,-0.007693882495751093
8.320,-0.012495561167385396,-0.0875894754312589,9.80724152396379,-0.01206610553702266,-0.007592418012772755,-0.0010675793047364064
8.330,0.06597640636546859,0.11140229555167669,9.963089412965678,-0.008568853660274697,-0.0036190303898876773,-0.00865274509320862
8.340,0.0607304230576986,0.025540317353995173,9.722088939613215,-0.013691521159757788,0.012074609952049072,0.009468010916768866
8.350,0.0330102145446151,-0.08190538051093217,9.659796578577142,-0.003066352403178739,-0.01212868457924726,0.006209098526319857
8.360,-0.06149538154942963,-0.07529916589916698,9.887580243070463,-0.02301543827403134,-0.015122736149715248,-0.00599416286206021
8.370,0.04427496147813681,-0.16222959916206145,9.956900388870567,-0.00902455146098721,0.0033574710810403002,-0.0010993315268493225
8.380,-0.13306938473525587,0.03399743455842767,9.687890342833203,-0.003503946218545632,-0.005248775539655635,0.014856317005334064
8.390,-0.11885406723402964,0.12905866807396713,9.834253821855002,0.00845948940439404,-0.0017374089993007233,0.005515513356517953
8.400,0.190562519083843,0.05895078766801959,9.859367720696117,0.0007883035413974571,0.00821023336872528,5.897158110847119e-05
8.410,0.001375354399452876,0.038544137610988176,9.882460386004135,0.001613167398969398,0.009772167327768524,-0.007049382772780348
8.420,-0.15705092955472702,-0.0032401132095382363,9.677251480676786,0.012742148413780373,0.016336279396742114,0.0022016197291008267
8.430,-0.04301491588896901,-0.0979976798723865,9.944018474337563,0.005268598161807385,-0.00393164632468352,-0.009878885763275764
8.440,0.18624740132421497,0.10444684350120109,9.812326375707553,-0.006095530148754128,-0.0009411631881795431,-0.0007239302353924283
8.450,0.11480773827739521,0.12090691141471506,9.545849025016455,0.023979519957769903,-0.016591600739920474,0.005508267646784382
8.460,0.05576650988582413,0.1934804661511445,9.714547387805974,0.008824120045522325,0.0013784463948750953,-0.006738441280072357
8.470,0.022073796565510062,0.127962312326401,9.999454728880359,5.197548993822702e-05,-0.004573140881049057,0.002761544516607664
8.480,-0.10504635902863996,0.35055656475953023,9.782369715489837,-0.0011688011333237777,0.006710539300701808,0.008309884760450956
8.490,0.011942355208423985,0.1308667812059553,9.838079265263957,-0.016960921911295845,-0.007370575174654546,-0.0067735855688838996
8.500,-0.13079438073360738,0.09087534196574343,9.81507277512266,0.01562869912167115,-0.0016642996708989897,0.01326568911709215
8.510,0.13266755689561516,-0.1187249911533128,9.59878425801034,-0.018262132229498344,-0.001214974982908216,-0.002068079786425546
8.520,0.14116629120181715,0.11613553855776414,9.840353500158917,0.008357620042988411,-0.002358272317382968,0.008991227253638332
8.530,-0.03400573088506076,0.25252111291085316,9.830932951938813,0.007182291791514205,-0.0012446404979888368,-0.0028574855932823797
8.540,0.05098225062360913,-0.047245496490567335,9.792644105136498,0.012994255298803572,0.007435508207075004,2.8721217525096038e-05
8.550,0.035731906828397574,-0.06061462584533816,9.723293742014956,-0.00981511278748645,-0.017881648146209347,-0.005049717657911397
8.560,-0.09799233738637637,-0.134363961800488,9.736876723093216,-0.000985991287564522,0.008859924584182213,-0.01352183993267812
8.570,0.13257500753782556,-0.06254661796829972,9.684147328734412,0.012021636628901156,-0.012988221058726825,0.0040833984069723476
8.580,-0.093041238271772,-0.13742742585618858,9.865608404937536,0.01332746920199195,0.004946347939998094,-0.009338981090385577
8.590,-0.12932998555284256,-0.08947723827016878,9.6535420588945,-0.00396610505003849,-0.007163226266459835,-0.003028955519712963
8.600,-0.11015980844475222,-0.08148853196839263,9.894954502668844,0.013924804596320305,0.02456194415362494,-0.005158913025416968
8.610,0.014250585480346896,-0.1551471479843503,9.755410241300103,-0.004249939443554131,-0.004513335766240149,-0.014166668284122249
8.620,0.09823856608534037,0.12824634645116692,9.778320431797576,0.0019187685189482198,-0.010936577409800686,0.0002793001128798383
8.630,0.06942320763976849,0.12743738682664144,9.82407691200723,-0.0018934175141321666,-0.004704544200554973,-0.021642014645709754
8.640,0.08185050322539766,-0.22144350571642293,9.906454684721663,0.00730733765219311,0.0013497945161680153,-0.008537618774213019
8.650,0.011853812783021972,-0.04619706429077663,9.79408231637131,0.0020167180303408386,-0.0025456574157726405,0.010465565183291108
8.660,0.11346439695275423,0.00397811039594929,9.807681583274574,-0.0010865965210875152,-0.005833381518232019,0.010546162813071563
8.670,0.00480708470975599,0.05683917814460848,9.802800720687785,0.011899587112507238,-0.008530612465535596,0.006089561153801087
8.680,-0.06699098332062532,0.08157794212330689,9.869222491549824,-0.012303056338125172,-0.0011083512783978706,-0.00942037168262832
8.690,0.042316438420169855,0.16905430636787463,9.923061054470596,-0.01206116138488918,-0.023583212024105085,0.020301626137984644
8.700,0.05838892800936024,-0.1426766431463683,9.888257668963869,-0.01413481656926309,0.02001982663114917,-0.003782546571457488
8.710,-0.010757841211561803,0.10596589342839934,9.918340600970446,-0.002508382144140871,-0.01188149671181293,0.002475675781476456
8.720,0.0605824692943982,-0.03216153364737692,9.6953583832043,0.006959353831448682,0.002863557157018989,0.027688310928048607
8.730,-0.029892264682081955,0.22849159688255627,9.825782788909214,0.0013847102833732896,0.00827132770060495,-0.008191085148228205
8.740,-0.09241047149183641,0.09663126370186925,9.986381830785541,-0.001579669327046485,-0.0018341462540531293,-0.0016635810020629003
8.750,-0.0161848486081265,-0.14403447577050574,9.816693202007677,-0.01323177786691403,0.0015914080238181559,-0.01550834369900625
8.760,0.04671893091421727,-0.1149385641324219,9.925750664981619,-0.0010002810734704509,0.005485776976037395,-0.007096341572642925
8.770,0.04575042017116302,0.02582839663829846,9.796633921885622,-0.002344299826346153,0.0004640940942757032,-0.003563463313874355
8.780,-0.2742071613975993,0.07074412702847559,9.710728169077187,0.011213669057920253,0.008128575166481477,0.0006454524243052662
8.790,-0.140291043020895,0.13493774823071678,9.856808883239431,0.0070350135644282,-0.010393412564103095,-0.017991547615615954
8.800,-0.0024371748328610976,-0.04312322797542628,9.842965063743303,-0.008869843436897795,-0.0094792129274224,-0.00021206593096910898
8.810,-0.02761155377878558,0.23355824995631613,9.761535198618345,-0.006564479252194298,0.011363058813090141,-0.005237868010741858
8.820,-0.14195681184635223,0.05760613595965877,9.66185399331829,0.00048601861879002145,-0.00201267999026454,0.005082247091599223
8.830,-0.0723144341909602,-0.1990017359214069,9.903086931186504,-0.029066909365368876,0.004014129289228581,-0.005550717220423015
8.840,-0.03314992460869107,-0.02087813991972269,9.857954017587799,0.0016296249020215814,-0.007975405208558415,0.017040720722686926
8.850,-0.05396556820293851,0.07826542230362855,9.62365174461181,-0.010891037153258136,0.00016146818254336522,0.0026816153246958965
8.860,-0.07356081157658903,0.05606316047593485,9.646082307799064,0.00707925927197558,-0.002952224127851943,0.007087714041041561
8.870,-0.026898717301409678,-0.09318798859904531,9.795913944507925,-0.012276715126171563,-0.012437887199302687,-0.014875164644530297
8.880,0.14897644046381325,0.17852049499390701,9.971746980143463,-0.011842227275611862,-0.008248115128423878,0.006205145790221416
8.890,-0.25997069285558977,0.017783418266886012,9.889873359506726,0.0015877238970465057,0.0015361614657162037,0.005924987499636877
8.900,0.02804388162894868,-0.09057107547476954,9.749756592649213,-0.00886549979895805,-0.024397924357310172,0.007144967925017917
8.910,0.02359781127363296,-0.005014969105009159,9.761688256618825,-0.012581862252680215,0.020839849106309156,-0.00163173768633683
8.920,-0.09829328519305625,0.02403682952120487,9.579465435128196,0.005417828707425261,0.006443764833743977,-0.005458369719080838
8.930,-0.13241524152142997,-0.04117530192566605,9.780713892022767,-0.004063580563251635,0.00449962954233893,0.0009447110406850647
8.940,0.11603573368341435,0.012768245786814368,9.721970950998962,-0.0035975376956181022,-0.0025349938395880394,0.010908302238062047
8.950,-0.13464939768905143,0.02664686912884919,9.915487318357885,-0.013300954011148019,-0.0037221896397853765,0.018384888695713263
8.960,0.10333629512107784,0.02548518088652294,9.5748283866343,0.00387522473907514,0.014860311769156318,-0.017176187449806972
8.970,0.08694361081730034,0.09572825761269056,9.79961188678385,-0.020242956137584894,-0.003968378489481461,-0.004703420353906451
8.980,0.02551755406245479,-0.0643863864212681,9.654685842639923,0.023738694084453834,-0.0016962600388500382,-0.003239170888041311
8.990,0.06987370506028633,-0.07706177665639091,9.822714877191101,0.00677597677039289,0.0189718991409316,0.02921950365219185
9.000,0.04240881832308242,0.014015010396306555,9.693547720864725,-0.01419732200113312,0.004240014249022226,-0.01640691820662105
9.010,0.13263948634468706,0.14356748267885863,9.675416460668519,0.008905499484842693,0.006208243312719911,0.026109715112762888
9.020,0.009940065848692921,-0.06516507878988413,9.743822105351304,0.017961239917150235,0.004107332302884299,-0.007552793003570337
9.030,-0.03864622139408894,-0.08252871558647279,9.81116630948042,-0.00040594629434296625,0.0055266802511561705,-0.032039544321405634
9.040,0.1425994064319933,0.1526984297682581,9.756060040521248,-0.011432466095565925,0.015468669837580693,0.0038671086034215286
9.050,0.05987554235235966,0.08501215153853567,9.694768949428314,-0.013267138021014384,0.01667980770423337,0.025259629932951277
9.060,-0.023869019319647324,-0.07282634238349639,9.644850587582233,0.020984467219549906,0.005622405209442947,-0.004323847697480904
9.070,0.020703974678986187,0.002347097144540884,9.901535039912506,0.0037054002337603893,-0.0055972099333653595,-0.006731127984135168
9.080,0.08883676804832347,0.13085695588341026,9.944980322232928,-0.011515222116219,-0.014135055640009454,-0.001979221896553206
9.090,0.0004432660189677724,-0.0252041973375565,9.835044085441004,-0.005468132824298657,0.011828079044705762,0.01517117555343265
9.100,0.07852110923680389,0.003576339555606851,9.945998015517935,0.01554623239645429,-0.0086738311340292,0.008484529304175767
9.110,-0.10191741945231128,0.026496781837113854,9.61147459383848,-0.01129013882377249,0.002051550139669151,0.010472157904682476
9.120,0.06674685750467045,-0.16470356951569753,9.817613411814794,0.0036754747958545925,-0.008865768036613932,0.004373875618704665
9.130,0.14032510499374726,0.10750425023974858,9.731925455108595,0.0056715094594025055,0.014770961554971391,-0.026364173304294105
9.140,-0.016098491817754662,0.03448301460754929,9.80401870485937,0.0019471943402442138,-0.0027078029976546313,-0.006301880802186988
9.150,0.12744967125539466,-0.131401201312672,9.92731811051717,0.02096769063531546,-0.01380909552983814,0.007191793151373832
9.160,0.15012102157757348,-0.01171336472751847,9.795094710543125,0.00043777230135722776,0.01044928993585059,0.00858552825114345
9.170,-0.09607946719861127,-0.1179114119099543,9.733195250067551,0.0008679310371322267,0.011347592842944865,-0.010876397642424188
9.180,0.029392842510103986,0.0260623737696788,9.698506494247997,-0.0009485860409690752,0.015995969235719255,0.0032691325443365204
9.190,-0.06692993792897162,0.1287495573242895,9.790865941890234,0.010621788865094177,-0.0015578716767929066,0.017172891911233248
9.200,0.019692074091355857,0.12264172624082254,9.758834354225815,0.002414691599045998,0.0065079662281061655,-0.0023204025675436246
9.210,0.27175314317259275,0.07290288690787272,9.71258197948897,-0.008955736423824702,0.008933812728891504,-0.001393908978947563
